pos,corr_resp,trials.thisRepN,trials.thisTrialN,trials.thisN,trials.thisIndex,trials_2.thisRepN,trials_2.thisTrialN,trials_2.thisN,trials_2.thisIndex,thisRow.t,notes,trial.started,fixation.started,line1.started,line2.started,line3.started,line4.started,fixation.stopped,probe.started,key_resp.started,trial.stopped,key_resp.keys,key_resp.corr,key_resp.rt,key_resp.duration,participant,session,date,expName,psychopyVersion,frameRate,expStart,
-150,z,0,0,0,0,,,,,0.013487000003806315,,0.009168600008706562,0.013487000003806315,1.0071130000142148,1.0071130000142148,1.0071130000142148,1.0071130000142148,1.023916600010125,2.006935400000657,2.006935400000657,2.6053119000134757,z,1,0.43536699999822304,None,866364,001,2024-10-16_16h27.00.880,sequene learning,2024.1.5,None,2024-10-16 16h27.07.445902 +0530,
-50,x,0,1,1,1,,,,,2.6092085000127554,,2.6060679000074742,2.6092085000127554,3.6066790000040783,3.6066790000040783,3.6066790000040783,3.6066790000040783,3.6235216000059154,4.606616000004578,4.606616000004578,5.158350200013956,x,1,0.5499335999920731,None,866364,001,2024-10-16_16h27.00.880,sequene learning,2024.1.5,None,2024-10-16 16h27.07.445902 +0530,
50,c,0,2,2,2,,,,,5.173298700014129,,5.159771000006003,5.173298700014129,6.17312460001267,6.17312460001267,6.17312460001267,6.17312460001267,6.17312460001267,7.1723485000111395,7.1723485000111395,7.574568400013959,c,1,0.38846960000228137,None,866364,001,2024-10-16_16h27.00.880,sequene learning,2024.1.5,None,2024-10-16 16h27.07.445902 +0530,
150,v,0,3,3,3,,,,,7.58918850000191,,7.576348100003088,7.58918850000191,8.588865800003987,8.588865800003987,8.588865800003987,8.588865800003987,8.588865800003987,9.588990300006117,9.588990300006117,9.906951400000253,v,1,0.30954170000040904,None,866364,001,2024-10-16_16h27.00.880,sequene learning,2024.1.5,None,2024-10-16 16h27.07.445902 +0530,
-150,z,1,0,4,0,,,,,9.922956200010958,,9.90866570000071,9.922956200010958,10.921771700013778,10.921771700013778,10.921771700013778,10.921771700013778,10.938532900006976,11.921641100008856,11.921641100008856,12.25578220000898,z,1,0.3283759000041755,None,866364,001,2024-10-16_16h27.00.880,sequene learning,2024.1.5,None,2024-10-16 16h27.07.445902 +0530,
-50,x,1,1,5,1,,,,,12.271818799999892,,12.25649680000788,12.271818799999892,13.271383800005424,13.271383800005424,13.271383800005424,13.271383800005424,13.271383800005424,14.271249800003716,14.271249800003716,14.538758200011216,x,1,0.2601237999915611,None,866364,001,2024-10-16_16h27.00.880,sequene learning,2024.1.5,None,2024-10-16 16h27.07.445902 +0530,
50,c,1,2,6,2,,,,,14.554451400006656,,14.540181500007748,14.554451400006656,15.554017100002966,15.554017100002966,15.554017100002966,15.554017100002966,15.554017100002966,16.558553100010613,16.558553100010613,17.14011210000899,c,1,0.5766825000027893,None,866364,001,2024-10-16_16h27.00.880,sequene learning,2024.1.5,None,2024-10-16 16h27.07.445902 +0530,
150,v,1,3,7,3,,,,,17.153999100002693,,17.141700800013496,17.153999100002693,18.15461480000522,18.15461480000522,18.15461480000522,18.15461480000522,18.15461480000522,19.153428500008886,19.153428500008886,19.471034700007294,v,1,0.30670040000404697,None,866364,001,2024-10-16_16h27.00.880,sequene learning,2024.1.5,None,2024-10-16 16h27.07.445902 +0530,
-150,z,2,0,8,0,,,,,19.486574500013376,,19.47152370000549,19.486574500013376,20.48630050000793,20.48630050000793,20.48630050000793,20.48630050000793,20.48630050000793,21.486125600000378,21.486125600000378,22.287438800005475,z,1,0.7844067999976687,None,866364,001,2024-10-16_16h27.00.880,sequene learning,2024.1.5,None,2024-10-16 16h27.07.445902 +0530,
-50,x,2,1,9,1,,,,,22.302837600000203,,22.288352700008545,22.302837600000203,23.302424700013944,23.302424700013944,23.302424700013944,23.302424700013944,23.302424700013944,24.302404100002605,24.302404100002605,25.169369200011715,x,1,0.8630681999929948,None,866364,001,2024-10-16_16h27.00.880,sequene learning,2024.1.5,None,2024-10-16 16h27.07.445902 +0530,
50,c,2,2,10,2,,,,,25.185334600013448,,25.170420200010994,25.185334600013448,26.168935500012594,26.168935500012594,26.168935500012594,26.168935500012594,26.185406300006434,27.16912870001397,27.16912870001397,28.268766500012134,c,1,1.0864580999914324,None,866364,001,2024-10-16_16h27.00.880,sequene learning,2024.1.5,None,2024-10-16 16h27.07.445902 +0530,
150,v,2,3,11,3,,,,,28.284722900003544,,28.269615100012743,28.284722900003544,29.26796940001077,29.26796940001077,29.26796940001077,29.26796940001077,29.284683700010646,30.284448500009603,30.284448500009603,31.66868920001434,v,1,1.374562099998002,None,866364,001,2024-10-16_16h27.00.880,sequene learning,2024.1.5,None,2024-10-16 16h27.07.445902 +0530,
-150,z,3,0,12,0,,,,,31.684251500002574,,31.67029830001411,31.684251500002574,32.68371360001038,32.68371360001038,32.68371360001038,32.68371360001038,32.68371360001038,33.683383700001286,33.683383700001286,34.5522093000036,z,1,0.8611689000099432,None,866364,001,2024-10-16_16h27.00.880,sequene learning,2024.1.5,None,2024-10-16 16h27.07.445902 +0530,
-50,x,3,1,13,1,,,,,34.567332400009036,,34.553515999999945,34.567332400009036,35.5670347000123,35.5670347000123,35.5670347000123,35.5670347000123,35.5670347000123,36.56625590000476,36.56625590000476,36.95118090001051,c,0,0.3766174000047613,None,866364,001,2024-10-16_16h27.00.880,sequene learning,2024.1.5,None,2024-10-16 16h27.07.445902 +0530,
50,c,3,2,14,2,,,,,36.966302700006054,,36.952516700010165,36.966302700006054,37.96634020000056,37.96634020000056,37.96634020000056,37.96634020000056,37.96634020000056,38.96612830000231,38.96612830000231,39.25025270000333,v,0,0.27935439998691436,None,866364,001,2024-10-16_16h27.00.880,sequene learning,2024.1.5,None,2024-10-16 16h27.07.445902 +0530,
150,v,3,3,15,3,,,,,39.26592200000596,,39.251193600008264,39.26592200000596,40.26575830001093,40.26575830001093,40.26575830001093,40.26575830001093,40.26575830001093,41.26547510000819,41.26547510000819,41.60014970001066,v,1,0.32854970000335015,None,866364,001,2024-10-16_16h27.00.880,sequene learning,2024.1.5,None,2024-10-16 16h27.07.445902 +0530,
-150,z,4,0,16,0,,,,,41.6146701000107,,41.601705900000525,41.6146701000107,42.61526320000121,42.61526320000121,42.61526320000121,42.61526320000121,42.61526320000121,43.615944700010004,43.615944700010004,43.99936830000661,z,1,0.37867109999933746,None,866364,001,2024-10-16_16h27.00.880,sequene learning,2024.1.5,None,2024-10-16 16h27.07.445902 +0530,
-50,x,4,1,17,1,,,,,44.0149928000028,,44.00023690001399,44.0149928000028,45.01470880000852,45.01470880000852,45.01470880000852,45.01470880000852,45.01470880000852,46.0147333000059,46.0147333000059,46.316676400005235,x,1,0.28592809999827296,None,866364,001,2024-10-16_16h27.00.880,sequene learning,2024.1.5,None,2024-10-16 16h27.07.445902 +0530,
50,c,4,2,18,2,,,,,46.331186600000365,,46.31842700000561,46.331186600000365,47.33126170000469,47.33126170000469,47.33126170000469,47.33126170000469,47.33126170000469,48.33030370000051,48.33030370000051,48.74848100000236,c,1,0.4130365999881178,None,866364,001,2024-10-16_16h27.00.880,sequene learning,2024.1.5,None,2024-10-16 16h27.07.445902 +0530,
150,v,4,3,19,3,,,,,48.763698900002055,,48.749416900012875,48.763698900002055,49.76405870000599,49.76405870000599,49.76405870000599,49.76405870000599,49.76405870000599,50.763311900009285,50.763311900009285,51.698521500002244,v,1,0.9231522000045516,None,866364,001,2024-10-16_16h27.00.880,sequene learning,2024.1.5,None,2024-10-16 16h27.07.445902 +0530,
-150,z,5,0,20,0,,,,,51.71322400000645,,51.69975880000857,51.71322400000645,52.71304390000296,52.71304390000296,52.71304390000296,52.71304390000296,52.71304390000296,53.71175450000737,53.71175450000737,54.94693120000011,z,1,1.233180800001719,None,866364,001,2024-10-16_16h27.00.880,sequene learning,2024.1.5,None,2024-10-16 16h27.07.445902 +0530,
-50,x,5,1,21,1,,,,,54.96238220001396,,54.94799810000404,54.96238220001396,55.962415100002545,55.962415100002545,55.962415100002545,55.962415100002545,55.962415100002545,56.961916300002486,56.961916300002486,57.67915450000146,x,1,0.7097370999981649,None,866364,001,2024-10-16_16h27.00.880,sequene learning,2024.1.5,None,2024-10-16 16h27.07.445902 +0530,
50,c,5,2,22,2,,,,,57.6944741000043,,57.68048850000196,57.6944741000043,58.69525310001336,58.69525310001336,58.69525310001336,58.69525310001336,58.69525310001336,59.69520270000794,59.69520270000794,60.41277130000526,v,0,0.7096355999965454,None,866364,001,2024-10-16_16h27.00.880,sequene learning,2024.1.5,None,2024-10-16 16h27.07.445902 +0530,
150,v,5,3,23,3,,,,,60.42805450000742,,60.41398880000634,60.42805450000742,61.42804180001258,61.42804180001258,61.42804180001258,61.42804180001258,61.42804180001258,62.42747330000566,62.42747330000566,63.52882680000039,v,1,1.092714700003853,None,866364,001,2024-10-16_16h27.00.880,sequene learning,2024.1.5,None,2024-10-16 16h27.07.445902 +0530,
-150,z,6,0,24,0,,,,,63.54405590001261,,63.53034810000099,63.54405590001261,64.54370250001375,64.54370250001375,64.54370250001375,64.54370250001375,64.54370250001375,65.54367550001189,65.54367550001189,65.92823260001023,z,1,0.37726130000373814,None,866364,001,2024-10-16_16h27.00.880,sequene learning,2024.1.5,None,2024-10-16 16h27.07.445902 +0530,
-50,x,6,1,25,1,,,,,65.94354770000791,,65.92956260000938,65.94354770000791,66.94357420000597,66.94357420000597,66.94357420000597,66.94357420000597,66.94357420000597,67.94310820000828,67.94310820000828,68.34450460001244,x,1,0.38724399999773595,None,866364,001,2024-10-16_16h27.00.880,sequene learning,2024.1.5,None,2024-10-16 16h27.07.445902 +0530,
50,c,6,2,26,2,,,,,68.35980240000936,,68.34638470000937,68.35980240000936,69.35991900000954,69.35991900000954,69.35991900000954,69.35991900000954,69.35991900000954,70.3592992000049,70.3592992000049,70.72735210000246,c,1,0.3668471999990288,None,866364,001,2024-10-16_16h27.00.880,sequene learning,2024.1.5,None,2024-10-16 16h27.07.445902 +0530,
150,v,6,3,27,3,,,,,70.74262220000674,,70.72856300001149,70.74262220000674,71.74193580000428,71.74193580000428,71.74193580000428,71.74193580000428,71.74193580000428,72.74211350000405,72.74211350000405,73.02717600000324,v,1,0.27860349998809397,None,866364,001,2024-10-16_16h27.00.880,sequene learning,2024.1.5,None,2024-10-16 16h27.07.445902 +0530,
-150,z,7,0,28,0,,,,,73.04253050000989,,73.0282986000093,73.04253050000989,74.04156800000055,74.04156800000055,74.04156800000055,74.04156800000055,74.04156800000055,75.04145280001103,75.04145280001103,75.64593300000706,z,1,0.6018753999960609,None,866364,001,2024-10-16_16h27.00.880,sequene learning,2024.1.5,None,2024-10-16 16h27.07.445902 +0530,
-50,x,7,1,29,1,,,,,75.65833040000871,,75.64697270000761,75.65833040000871,76.65796960001171,76.65796960001171,76.65796960001171,76.65796960001171,76.65796960001171,77.65668580000056,77.65668580000056,77.97545530000934,x,1,0.3069507999898633,None,866364,001,2024-10-16_16h27.00.880,sequene learning,2024.1.5,None,2024-10-16 16h27.07.445902 +0530,
50,c,7,2,30,2,,,,,77.99102990000392,,77.97692200000165,77.99102990000392,78.99084399999992,78.99084399999992,78.99084399999992,78.99084399999992,78.99084399999992,79.99055360000057,79.99055360000057,80.29185450001387,c,1,0.29357760000857525,None,866364,001,2024-10-16_16h27.00.880,sequene learning,2024.1.5,None,2024-10-16 16h27.07.445902 +0530,
150,v,7,3,31,3,,,,,80.3072502000141,,80.29339390000678,80.3072502000141,81.30708130000858,81.30708130000858,81.30708130000858,81.30708130000858,81.30708130000858,82.30680150000262,82.30680150000262,82.62479440000607,v,1,0.3109022999997251,None,866364,001,2024-10-16_16h27.00.880,sequene learning,2024.1.5,None,2024-10-16 16h27.07.445902 +0530,
-150,z,8,0,32,0,,,,,82.64031160000013,,82.6262371000048,82.64031160000013,83.64006910000171,83.64006910000171,83.64006910000171,83.64006910000171,83.64006910000171,84.63977750000777,84.63977750000777,85.06017280000378,z,1,0.4053736000059871,None,866364,001,2024-10-16_16h27.00.880,sequene learning,2024.1.5,None,2024-10-16 16h27.07.445902 +0530,
-50,x,8,1,33,1,,,,,85.07243800000288,,85.06338130000222,85.07243800000288,86.07261260000814,86.07261260000814,86.07261260000814,86.07261260000814,86.07261260000814,87.07206750000478,87.07206750000478,87.42340890000924,x,1,0.3448307000071509,None,866364,001,2024-10-16_16h27.00.880,sequene learning,2024.1.5,None,2024-10-16 16h27.07.445902 +0530,
50,c,8,2,34,2,,,,,87.43914550000045,,87.42488970000704,87.43914550000045,88.43868390000716,88.43868390000716,88.43868390000716,88.43868390000716,88.43868390000716,89.4384679000068,89.4384679000068,89.72216420000768,c,1,0.2741517000104068,None,866364,001,2024-10-16_16h27.00.880,sequene learning,2024.1.5,None,2024-10-16 16h27.07.445902 +0530,
150,v,8,3,35,3,,,,,89.73844910001208,,89.72347670000454,89.73844910001208,90.73811900000146,90.73811900000146,90.73811900000146,90.73811900000146,90.73811900000146,91.73788990000321,91.73788990000321,92.48981250000361,v,1,0.7389563999895472,None,866364,001,2024-10-16_16h27.00.880,sequene learning,2024.1.5,None,2024-10-16 16h27.07.445902 +0530,
-150,z,9,0,36,0,,,,,92.50476690000505,,92.4914451000077,92.50476690000505,93.50439420000475,93.50439420000475,93.50439420000475,93.50439420000475,93.50439420000475,94.50402340000437,94.50402340000437,95.10481620000792,z,1,0.5953186999977333,None,866364,001,2024-10-16_16h27.00.880,sequene learning,2024.1.5,None,2024-10-16 16h27.07.445902 +0530,
-50,x,9,1,37,1,,,,,95.1205578000081,,95.10601410000527,95.1205578000081,96.12024780000502,96.12024780000502,96.12024780000502,96.12024780000502,96.12024780000502,97.12044470000546,97.12044470000546,97.40550610001083,x,1,0.2716980999975931,None,866364,001,2024-10-16_16h27.00.880,sequene learning,2024.1.5,None,2024-10-16 16h27.07.445902 +0530,
50,c,9,2,38,2,,,,,97.4201061000058,,97.40719070000341,97.4201061000058,98.42091230000369,98.42091230000369,98.42091230000369,98.42091230000369,98.42091230000369,99.42077530000824,99.42077530000824,99.82128860001103,c,1,0.39688050000404473,None,866364,001,2024-10-16_16h27.00.880,sequene learning,2024.1.5,None,2024-10-16 16h27.07.445902 +0530,
150,v,9,3,39,3,,,,,99.83624200000486,,99.8219201000029,99.83624200000486,100.83717100000649,100.83717100000649,100.83717100000649,100.83717100000649,100.83717100000649,101.83630860000267,101.83630860000267,102.15410640000482,v,1,0.3073452999960864,None,866364,001,2024-10-16_16h27.00.880,sequene learning,2024.1.5,None,2024-10-16 16h27.07.445902 +0530,
-150,z,10,0,40,0,,,,,102.1688778000098,,102.15560650000407,102.1688778000098,103.16903330000059,103.16903330000059,103.16903330000059,103.16903330000059,103.16903330000059,104.16846530001203,104.16846530001203,104.63668000001053,z,1,0.4613396000058856,None,866364,001,2024-10-16_16h27.00.880,sequene learning,2024.1.5,None,2024-10-16 16h27.07.445902 +0530,
-50,x,10,1,41,1,,,,,104.65177860000404,,104.63805220001086,104.65177860000404,105.65182100000675,105.65182100000675,105.65182100000675,105.65182100000675,105.65182100000675,106.65138210001169,106.65138210001169,106.96943870000541,x,1,0.30575169999792706,None,866364,001,2024-10-16_16h27.00.880,sequene learning,2024.1.5,None,2024-10-16 16h27.07.445902 +0530,
50,c,10,2,42,2,,,,,106.984823900013,,106.97087970000575,106.984823900013,107.98438490000262,107.98438490000262,107.98438490000262,107.98438490000262,107.98438490000262,108.98426100000506,108.98426100000506,109.40237850000267,c,1,0.41587820000131615,None,866364,001,2024-10-16_16h27.00.880,sequene learning,2024.1.5,None,2024-10-16 16h27.07.445902 +0530,
150,v,10,3,43,3,,,,,109.41731540000183,,109.40386230000877,109.41731540000183,110.41734160001215,110.41734160001215,110.41734160001215,110.41734160001215,110.41734160001215,111.41706030000933,111.41706030000933,111.7521521000017,v,1,0.3195609999966109,None,866364,001,2024-10-16_16h27.00.880,sequene learning,2024.1.5,None,2024-10-16 16h27.07.445902 +0530,
-150,z,11,0,44,0,,,,,111.76709970000957,,111.75386690000596,111.76709970000957,112.76676020000014,112.76676020000014,112.76676020000014,112.76676020000014,112.76676020000014,113.76657780000824,113.76657780000824,114.18438160000369,z,1,0.40123980000498705,None,866364,001,2024-10-16_16h27.00.880,sequene learning,2024.1.5,None,2024-10-16 16h27.07.445902 +0530,
-50,x,11,1,45,1,,,,,114.19998740000301,,114.18569230000139,114.19998740000301,115.20421239999996,115.20421239999996,115.20421239999996,115.20421239999996,115.20421239999996,116.19955530000152,116.19955530000152,116.48441690001346,x,1,0.27638570000999607,None,866364,001,2024-10-16_16h27.00.880,sequene learning,2024.1.5,None,2024-10-16 16h27.07.445902 +0530,
50,c,11,2,46,2,,,,,116.49953610000375,,116.48586170001363,116.49953610000375,117.49956840000232,117.49956840000232,117.49956840000232,117.49956840000232,117.49956840000232,118.49894970000605,118.49894970000605,118.95030720000796,c,1,0.4454204000066966,None,866364,001,2024-10-16_16h27.00.880,sequene learning,2024.1.5,None,2024-10-16 16h27.07.445902 +0530,
150,v,11,3,47,3,,,,,118.96556990001409,,118.95160930001293,118.96556990001409,119.9652647000039,119.9652647000039,119.9652647000039,119.9652647000039,119.9652647000039,120.96513550000964,120.96513550000964,121.31639420001011,v,1,0.34206819999963045,None,866364,001,2024-10-16_16h27.00.880,sequene learning,2024.1.5,None,2024-10-16 16h27.07.445902 +0530,
-150,z,12,0,48,0,,,,,121.3319055000029,,121.31775880001078,121.3319055000029,122.33144820001326,122.33144820001326,122.33144820001326,122.33144820001326,122.33144820001326,123.33122150000418,123.33122150000418,123.66704550001305,z,1,0.3248656000068877,None,866364,001,2024-10-16_16h27.00.880,sequene learning,2024.1.5,None,2024-10-16 16h27.07.445902 +0530,
-50,x,12,1,49,1,,,,,123.68136020000384,,123.66884850000497,123.68136020000384,124.68088600000192,124.68088600000192,124.68088600000192,124.68088600000192,124.68088600000192,125.681010100001,125.681010100001,125.98094410001067,x,1,0.2835753000108525,None,866364,001,2024-10-16_16h27.00.880,sequene learning,2024.1.5,None,2024-10-16 16h27.07.445902 +0530,
50,c,12,2,50,2,,,,,125.99658230000932,,125.98209360000328,125.99658230000932,126.99716390001413,126.99716390001413,126.99716390001413,126.99716390001413,126.99716390001413,127.99704550000024,127.99704550000024,128.33174890000373,c,1,0.32922250000410713,None,866364,001,2024-10-16_16h27.00.880,sequene learning,2024.1.5,None,2024-10-16 16h27.07.445902 +0530,
150,v,12,3,51,3,,,,,128.34699410000758,,128.33320540000568,128.34699410000758,129.3470023000118,129.3470023000118,129.3470023000118,129.3470023000118,129.3470023000118,130.3465780000115,130.3465780000115,130.6501772000047,v,1,0.30016120000800584,None,866364,001,2024-10-16_16h27.00.880,sequene learning,2024.1.5,None,2024-10-16 16h27.07.445902 +0530,
-150,z,13,0,52,0,,,,,130.66303250000055,,130.6521064000117,130.66303250000055,131.6628641000134,131.6628641000134,131.6628641000134,131.6628641000134,131.6628641000134,132.66256310000608,132.66256310000608,133.14822890001233,x,0,0.4741618000116432,None,866364,001,2024-10-16_16h27.00.880,sequene learning,2024.1.5,None,2024-10-16 16h27.07.445902 +0530,
-50,x,13,1,53,1,,,,,133.16264950000914,,133.1498939000012,133.16264950000914,134.1611023000005,134.1611023000005,134.1611023000005,134.1611023000005,134.1611023000005,135.16201050000382,135.16201050000382,135.42974140000297,x,1,0.26394609999260865,None,866364,001,2024-10-16_16h27.00.880,sequene learning,2024.1.5,None,2024-10-16 16h27.07.445902 +0530,
50,c,13,2,54,2,,,,,135.44532370001252,,135.43072300001222,135.44532370001252,136.44530060001125,136.44530060001125,136.44530060001125,136.44530060001125,136.44530060001125,137.44535090000136,137.44535090000136,137.86281420000887,c,1,0.4154195000010077,None,866364,001,2024-10-16_16h27.00.880,sequene learning,2024.1.5,None,2024-10-16 16h27.07.445902 +0530,
150,v,13,3,55,3,,,,,137.87829469999997,,137.86423290001403,137.87829469999997,138.87815840000985,138.87815840000985,138.87815840000985,138.87815840000985,138.87815840000985,139.87791560000915,139.87791560000915,140.16179140000895,v,1,0.2799246999929892,None,866364,001,2024-10-16_16h27.00.880,sequene learning,2024.1.5,None,2024-10-16 16h27.07.445902 +0530,
-150,z,14,0,56,0,,,,,140.1779963000008,,140.16271510001388,140.1779963000008,141.17743740000878,141.17743740000878,141.17743740000878,141.17743740000878,141.17743740000878,142.17651430000842,142.17651430000842,142.87790360000508,z,1,0.6931003000063356,None,866364,001,2024-10-16_16h27.00.880,sequene learning,2024.1.5,None,2024-10-16 16h27.07.445902 +0530,
-50,x,14,1,57,1,,,,,142.89369060000172,,142.87898840001435,142.89369060000172,143.89403040001343,143.89403040001343,143.89403040001343,143.89403040001343,143.89403040001343,144.89316680000047,144.89316680000047,146.6620069000055,x,1,1.75881319999462,None,866364,001,2024-10-16_16h27.00.880,sequene learning,2024.1.5,None,2024-10-16 16h27.07.445902 +0530,
50,c,14,2,58,2,,,,,146.67628560001322,,146.66344790000585,146.67628560001322,147.6765524000075,147.6765524000075,147.6765524000075,147.6765524000075,147.6765524000075,148.6763159000111,148.6763159000111,149.01044330000877,c,1,0.3241649000119651,None,866364,001,2024-10-16_16h27.00.880,sequene learning,2024.1.5,None,2024-10-16 16h27.07.445902 +0530,
150,v,14,3,59,3,,,,,149.0257117000001,,149.0114801000018,149.0257117000001,150.0257369000028,150.0257369000028,150.0257369000028,150.0257369000028,150.0257369000028,151.02591420001409,151.02591420001409,151.47620190000453,v,1,0.44160890000057407,None,866364,001,2024-10-16_16h27.00.880,sequene learning,2024.1.5,None,2024-10-16 16h27.07.445902 +0530,
-150,z,15,0,60,0,,,,,151.49199360000785,,151.47689090001222,151.49199360000785,152.49192360001325,152.49192360001325,152.49192360001325,152.49192360001325,152.49192360001325,153.4916258000012,153.4916258000012,153.82582430000184,z,1,0.3308522000006633,None,866364,001,2024-10-16_16h27.00.880,sequene learning,2024.1.5,None,2024-10-16 16h27.07.445902 +0530,
-50,x,15,1,61,1,,,,,153.84181390001322,,153.82683520000137,153.84181390001322,154.84117870000773,154.84117870000773,154.84117870000773,154.84117870000773,154.84117870000773,155.84098910000466,155.84098910000466,156.14293770000222,x,1,0.2954215000063414,None,866364,001,2024-10-16_16h27.00.880,sequene learning,2024.1.5,None,2024-10-16 16h27.07.445902 +0530,
50,c,15,2,62,2,,,,,156.1586079000117,,156.1436870000034,156.1586079000117,157.1573541000107,157.1573541000107,157.1573541000107,157.1573541000107,157.1573541000107,158.15653080001357,158.15653080001357,158.44142510001257,c,1,0.27720149999368005,None,866364,001,2024-10-16_16h27.00.880,sequene learning,2024.1.5,None,2024-10-16 16h27.07.445902 +0530,
150,v,15,3,63,3,,,,,158.45684170001186,,158.44241200000397,158.45684170001186,159.45676290000847,159.45676290000847,159.45676290000847,159.45676290000847,159.45676290000847,160.45557720000215,160.45557720000215,160.75725960001,v,1,0.2884044999955222,None,866364,001,2024-10-16_16h27.00.880,sequene learning,2024.1.5,None,2024-10-16 16h27.07.445902 +0530,
-150,z,16,0,64,0,,,,,160.77364300000772,,160.75823040000978,160.77364300000772,161.77330200000142,161.77330200000142,161.77330200000142,161.77330200000142,161.77330200000142,162.7730259000091,162.7730259000091,163.2246598000056,z,1,0.44681259999924805,None,866364,001,2024-10-16_16h27.00.880,sequene learning,2024.1.5,None,2024-10-16 16h27.07.445902 +0530,
-50,x,16,1,65,1,,,,,163.23983960000623,,163.22604090000095,163.23983960000623,164.23934340001142,164.23934340001142,164.23934340001142,164.23934340001142,164.23934340001142,165.23921460000565,165.23921460000565,165.55761110001185,x,1,0.30962820000422653,None,866364,001,2024-10-16_16h27.00.880,sequene learning,2024.1.5,None,2024-10-16 16h27.07.445902 +0530,
50,c,16,2,66,2,,,,,165.57210450001003,,165.55916300001263,165.57210450001003,166.57241510000313,166.57241510000313,166.57241510000313,166.57241510000313,166.57241510000313,167.57184640000924,167.57184640000924,168.07259180000983,c,1,0.49410669998906087,None,866364,001,2024-10-16_16h27.00.880,sequene learning,2024.1.5,None,2024-10-16 16h27.07.445902 +0530,
150,v,16,3,67,3,,,,,168.0881892000034,,168.07330660001026,168.0881892000034,169.0884769000113,169.0884769000113,169.0884769000113,169.0884769000113,169.0884769000113,170.0885086000053,170.0885086000053,170.38891920000606,v,1,0.28661719999217894,None,866364,001,2024-10-16_16h27.00.880,sequene learning,2024.1.5,None,2024-10-16 16h27.07.445902 +0530,
-150,z,17,0,68,0,,,,,170.4043079000112,,170.3897536000004,170.4043079000112,171.40478460000304,171.40478460000304,171.40478460000304,171.40478460000304,171.40478460000304,172.40459250001004,172.40459250001004,172.68932150000182,z,1,0.2791460000007646,None,866364,001,2024-10-16_16h27.00.880,sequene learning,2024.1.5,None,2024-10-16 16h27.07.445902 +0530,
-50,x,17,1,69,1,,,,,172.70429400001012,,172.6915488000086,172.70429400001012,173.70414340001298,173.70414340001298,173.70414340001298,173.70414340001298,173.70414340001298,174.70354350001435,174.70354350001435,174.98818880000908,x,1,0.2799352000001818,None,866364,001,2024-10-16_16h27.00.880,sequene learning,2024.1.5,None,2024-10-16 16h27.07.445902 +0530,
50,c,17,2,70,2,,,,,175.00345290001133,,174.989198700001,175.00345290001133,176.00346520000312,176.00346520000312,176.00346520000312,176.00346520000312,176.00346520000312,177.00332270000945,177.00332270000945,177.32110900001135,c,1,0.30443889999878593,None,866364,001,2024-10-16_16h27.00.880,sequene learning,2024.1.5,None,2024-10-16 16h27.07.445902 +0530,
150,v,17,3,71,3,,,,,177.33671460000915,,177.3221801000036,177.33671460000915,178.33583070000168,178.33583070000168,178.33583070000168,178.33583070000168,178.33583070000168,179.3364881000016,179.3364881000016,179.65425580000738,v,1,0.31111219999729656,None,866364,001,2024-10-16_16h27.00.880,sequene learning,2024.1.5,None,2024-10-16 16h27.07.445902 +0530,
-150,z,18,0,72,0,,,,,179.66979340001126,,179.65566370000306,179.66979340001126,180.66929930000333,180.66929930000333,180.66929930000333,180.66929930000333,180.66929930000333,181.6695211000042,181.6695211000042,182.20385050000914,z,1,0.5300153999996837,None,866364,001,2024-10-16_16h27.00.880,sequene learning,2024.1.5,None,2024-10-16 16h27.07.445902 +0530,
-50,x,18,1,73,1,,,,,182.21886000000814,,182.2051618000114,182.21886000000814,183.2183984000003,183.2183984000003,183.2183984000003,183.2183984000003,183.2183984000003,184.21833970000444,184.21833970000444,184.77003250000416,x,1,0.5482493000017712,None,866364,001,2024-10-16_16h27.00.880,sequene learning,2024.1.5,None,2024-10-16 16h27.07.445902 +0530,
50,c,18,2,74,2,,,,,184.78534670000954,,184.7713611000072,184.78534670000954,185.78458910000336,185.78458910000336,185.78458910000336,185.78458910000336,185.78458910000336,186.784527900003,186.784527900003,187.67101200000616,x,0,0.8701459000003524,None,866364,001,2024-10-16_16h27.00.880,sequene learning,2024.1.5,None,2024-10-16 16h27.07.445902 +0530,
150,v,18,3,75,3,,,,,187.68444080000336,,187.6728584000084,187.68444080000336,188.68425280001247,188.68425280001247,188.68425280001247,188.68425280001247,188.68425280001247,189.68380030000117,189.68380030000117,190.0512435000128,v,1,0.35683289999724366,None,866364,001,2024-10-16_16h27.00.880,sequene learning,2024.1.5,None,2024-10-16 16h27.07.445902 +0530,
-150,z,19,0,76,0,,,,,190.06701590000011,,190.05221800001164,190.06701590000011,191.0674052000104,191.0674052000104,191.0674052000104,191.0674052000104,191.0674052000104,192.06668200000422,192.06668200000422,192.40135530001135,z,1,0.3263217999920016,None,866364,001,2024-10-16_16h27.00.880,sequene learning,2024.1.5,None,2024-10-16 16h27.07.445902 +0530,
-50,x,19,1,77,1,,,,,192.41641470001196,,192.4022524000029,192.41641470001196,193.41671920000226,193.41671920000226,193.41671920000226,193.41671920000226,193.41671920000226,194.4161626000132,194.4161626000132,194.71701100000064,x,1,0.28453109999827575,None,866364,001,2024-10-16_16h27.00.880,sequene learning,2024.1.5,None,2024-10-16 16h27.07.445902 +0530,
50,c,19,2,78,2,,,,,194.73253690000274,,194.7182235000073,194.73253690000274,195.73226440000872,195.73226440000872,195.73226440000872,195.73226440000872,195.73226440000872,196.73230510001304,196.73230510001304,197.0666748000076,c,1,0.3200702000031015,None,866364,001,2024-10-16_16h27.00.880,sequene learning,2024.1.5,None,2024-10-16 16h27.07.445902 +0530,
150,v,19,3,79,3,,,,,197.08224780000455,,197.06768000000739,197.08224780000455,198.08231110000634,198.08231110000634,198.08231110000634,198.08231110000634,198.08231110000634,199.08221630001208,199.08221630001208,199.46678050000628,v,1,0.3815528999984963,None,866364,001,2024-10-16_16h27.00.880,sequene learning,2024.1.5,None,2024-10-16 16h27.07.445902 +0530,
-150,z,20,0,80,0,,,,,199.48171870000078,,199.46770240001206,199.48171870000078,200.4817708000046,200.4817708000046,200.4817708000046,200.4817708000046,200.4817708000046,201.48116480000317,201.48116480000317,202.13303700000688,z,1,0.6422503000067081,None,866364,001,2024-10-16_16h27.00.880,sequene learning,2024.1.5,None,2024-10-16 16h27.07.445902 +0530,
-50,x,20,1,81,1,,,,,202.14823560000514,,202.13508810001076,202.14823560000514,203.14776880000136,203.14776880000136,203.14776880000136,203.14776880000136,203.14776880000136,204.14725060001365,204.14725060001365,204.3989913000114,x,1,0.2349508000042988,None,866364,001,2024-10-16_16h27.00.880,sequene learning,2024.1.5,None,2024-10-16 16h27.07.445902 +0530,
50,c,20,2,82,2,,,,,204.41402080000262,,204.40039230001275,204.41402080000262,205.41388470001402,205.41388470001402,205.41388470001402,205.41388470001402,205.41388470001402,206.41356050000468,206.41356050000468,206.7482408000069,c,1,0.3240137999964645,None,866364,001,2024-10-16_16h27.00.880,sequene learning,2024.1.5,None,2024-10-16 16h27.07.445902 +0530,
150,v,20,3,83,3,,,,,206.76351820000855,,206.74932650000846,206.76351820000855,207.76385040000605,207.76385040000605,207.76385040000605,207.76385040000605,207.76385040000605,208.76320490000944,208.76320490000944,209.08155630000692,v,1,0.3129807999939658,None,866364,001,2024-10-16_16h27.00.880,sequene learning,2024.1.5,None,2024-10-16 16h27.07.445902 +0530,
-150,z,21,0,84,0,,,,,209.09615720000875,,209.08255780000763,209.09615720000875,210.09606310000527,210.09606310000527,210.09606310000527,210.09606310000527,210.09606310000527,211.0959700000094,211.0959700000094,211.4639950000128,z,1,0.3541849000030197,None,866364,001,2024-10-16_16h27.00.880,sequene learning,2024.1.5,None,2024-10-16 16h27.07.445902 +0530,
-50,x,21,1,85,1,,,,,211.47906460000377,,211.4653692000138,211.47906460000377,212.47907560000021,212.47907560000021,212.47907560000021,212.47907560000021,212.47907560000021,213.4788288000127,213.4788288000127,213.79670990000886,x,1,0.3149221000057878,None,866364,001,2024-10-16_16h27.00.880,sequene learning,2024.1.5,None,2024-10-16 16h27.07.445902 +0530,
50,c,21,2,86,2,,,,,213.8119410000072,,213.7977450000035,213.8119410000072,214.81179620001058,214.81179620001058,214.81179620001058,214.81179620001058,214.81179620001058,215.8116815000103,215.8116815000103,216.1128097000037,c,1,0.2904283999960171,None,866364,001,2024-10-16_16h27.00.880,sequene learning,2024.1.5,None,2024-10-16 16h27.07.445902 +0530,
150,v,21,3,87,3,,,,,216.12854390000575,,216.11355920000642,216.12854390000575,217.12829560000682,217.12829560000682,217.12829560000682,217.12829560000682,217.12829560000682,218.12791260000085,218.12791260000085,218.4799278999999,v,1,0.34106199999223463,None,866364,001,2024-10-16_16h27.00.880,sequene learning,2024.1.5,None,2024-10-16 16h27.07.445902 +0530,
-150,z,22,0,88,0,,,,,218.49410080000234,,218.48088720001397,218.49410080000234,219.49423860000388,219.49423860000388,219.49423860000388,219.49423860000388,219.49423860000388,220.49400280001282,220.49400280001282,220.94482630000857,z,1,0.4423076000093715,None,866364,001,2024-10-16_16h27.00.880,sequene learning,2024.1.5,None,2024-10-16 16h27.07.445902 +0530,
-50,x,22,1,89,1,,,,,220.96030770000652,,220.94625630001246,220.96030770000652,221.9600946999999,221.9600946999999,221.9600946999999,221.9600946999999,221.9600946999999,222.96046190000197,222.96046190000197,223.44472540001152,x,1,0.4673091000004206,None,866364,001,2024-10-16_16h27.00.880,sequene learning,2024.1.5,None,2024-10-16 16h27.07.445902 +0530,
50,c,22,2,90,2,,,,,223.4599648000003,,223.44590670001344,223.4599648000003,224.45988080000097,224.45988080000097,224.45988080000097,224.45988080000097,224.45988080000097,225.45964520001144,225.45964520001144,225.79349080000247,c,1,0.32091660000151023,None,866364,001,2024-10-16_16h27.00.880,sequene learning,2024.1.5,None,2024-10-16 16h27.07.445902 +0530,
150,v,22,3,91,3,,,,,225.8101192000031,,225.79537740000524,225.8101192000031,226.80869119999988,226.80869119999988,226.80869119999988,226.80869119999988,226.82620030001272,227.8093768000108,227.8093768000108,228.11111920000985,v,1,0.2858886000030907,None,866364,001,2024-10-16_16h27.00.880,sequene learning,2024.1.5,None,2024-10-16 16h27.07.445902 +0530,
-150,z,23,0,92,0,,,,,228.12601300000097,,228.11241740001424,228.12601300000097,229.12537300000258,229.12537300000258,229.12537300000258,229.12537300000258,229.12537300000258,230.125512300001,230.125512300001,230.6093164000049,z,1,0.4734306000027573,None,866364,001,2024-10-16_16h27.00.880,sequene learning,2024.1.5,None,2024-10-16 16h27.07.445902 +0530,
-50,x,23,1,93,1,,,,,230.62500370001362,,230.61031530000037,230.62500370001362,231.62493760000507,231.62493760000507,231.62493760000507,231.62493760000507,231.62493760000507,232.6247532000125,232.6247532000125,232.92645070000435,x,1,0.29586540001037065,None,866364,001,2024-10-16_16h27.00.880,sequene learning,2024.1.5,None,2024-10-16 16h27.07.445902 +0530,
50,c,23,2,94,2,,,,,232.94129810000595,,232.92796250000538,232.94129810000595,233.94088290000218,233.94088290000218,233.94088290000218,233.94088290000218,233.94088290000218,234.94071890000487,234.94071890000487,235.42477500000678,c,1,0.4769861000095261,None,866364,001,2024-10-16_16h27.00.880,sequene learning,2024.1.5,None,2024-10-16 16h27.07.445902 +0530,
150,v,23,3,95,3,,,,,235.4413096000062,,235.42574220000824,235.4413096000062,236.440751800008,236.440751800008,236.440751800008,236.440751800008,236.440751800008,237.4406056000007,237.4406056000007,237.80892500000482,v,1,0.3599857999943197,None,866364,001,2024-10-16_16h27.00.880,sequene learning,2024.1.5,None,2024-10-16 16h27.07.445902 +0530,
-150,z,24,0,96,0,,,,,237.82366190000903,,237.80981520000205,237.82366190000903,238.8234969000041,238.8234969000041,238.8234969000041,238.8234969000041,238.8234969000041,239.8234708000091,239.8234708000091,240.1252688000095,z,1,0.2998422999953618,None,866364,001,2024-10-16_16h27.00.880,sequene learning,2024.1.5,None,2024-10-16 16h27.07.445902 +0530,
-50,x,24,1,97,1,,,,,240.14038720000826,,240.12611710000783,240.14038720000826,241.13951800001087,241.13951800001087,241.13951800001087,241.13951800001087,241.13951800001087,242.1393007000006,242.1393007000006,242.440709100003,x,1,0.28748270000505727,None,866364,001,2024-10-16_16h27.00.880,sequene learning,2024.1.5,None,2024-10-16 16h27.07.445902 +0530,
50,c,24,2,98,2,,,,,242.45609280001372,,242.44195720000425,242.45609280001372,243.4559799000126,243.4559799000126,243.4559799000126,243.4559799000126,243.4559799000126,244.45586380000168,244.45586380000168,244.75716850000026,c,1,0.2911565999966115,None,866364,001,2024-10-16_16h27.00.880,sequene learning,2024.1.5,None,2024-10-16 16h27.07.445902 +0530,
150,v,24,3,99,3,,,,,244.77222920001077,,244.76119270001072,244.77222920001077,245.77208190000965,245.77208190000965,245.77208190000965,245.77208190000965,245.77208190000965,246.7710786000098,246.7710786000098,247.10592720001296,v,1,0.3259767000126885,None,866364,001,2024-10-16_16h27.00.880,sequene learning,2024.1.5,None,2024-10-16 16h27.07.445902 +0530,
-150,z,25,0,100,0,,,,,247.12139290000778,,247.10732040001312,247.12139290000778,248.12169160001213,248.12169160001213,248.12169160001213,248.12169160001213,248.12169160001213,249.12126650000573,249.12126650000573,249.73894250000012,z,1,0.6100449000077788,None,866364,001,2024-10-16_16h27.00.880,sequene learning,2024.1.5,None,2024-10-16 16h27.07.445902 +0530,
-50,x,25,1,101,1,,,,,249.75426900001185,,249.7399570000125,249.75426900001185,250.7555466000049,250.7555466000049,250.7555466000049,250.7555466000049,250.7555466000049,251.75449570000637,251.75449570000637,252.0712624000007,x,1,0.31238309999753255,None,866364,001,2024-10-16_16h27.00.880,sequene learning,2024.1.5,None,2024-10-16 16h27.07.445902 +0530,
50,c,25,2,102,2,,,,,252.0876113000122,,252.07220800001232,252.0876113000122,253.08690740000748,253.08690740000748,253.08690740000748,253.08690740000748,253.08690740000748,254.08665800000017,254.08665800000017,254.40494690000196,c,1,0.31120179999561515,None,866364,001,2024-10-16_16h27.00.880,sequene learning,2024.1.5,None,2024-10-16 16h27.07.445902 +0530,
150,v,25,3,103,3,,,,,254.42021950001072,,254.40586440000334,254.42021950001072,255.41990090000036,255.41990090000036,255.41990090000036,255.41990090000036,255.41990090000036,256.4196927000012,256.4196927000012,256.7544856000022,v,1,0.3258077000064077,None,866364,001,2024-10-16_16h27.00.880,sequene learning,2024.1.5,None,2024-10-16 16h27.07.445902 +0530,
-150,z,26,0,104,0,,,,,256.76970830000937,,256.75540600001113,256.76970830000937,257.7691590000031,257.7691590000031,257.7691590000031,257.7691590000031,257.7691590000031,258.76968870000564,258.76968870000564,259.10314410000865,z,1,0.3243857999914326,None,866364,001,2024-10-16_16h27.00.880,sequene learning,2024.1.5,None,2024-10-16 16h27.07.445902 +0530,
-50,x,26,1,105,1,,,,,259.11874750000425,,259.10526730000856,259.11874750000425,260.1185614000133,260.1185614000133,260.1185614000133,260.1185614000133,260.1185614000133,261.1185645000078,261.1185645000078,261.4542042000103,x,1,0.31866900000022724,None,866364,001,2024-10-16_16h27.00.880,sequene learning,2024.1.5,None,2024-10-16 16h27.07.445902 +0530,
50,c,26,2,106,2,,,,,261.46837510001205,,261.45570230000885,261.46837510001205,262.4683350000123,262.4683350000123,262.4683350000123,262.4683350000123,262.4683350000123,263.468208300008,263.468208300008,263.8704122000054,c,1,0.3971469999960391,None,866364,001,2024-10-16_16h27.00.880,sequene learning,2024.1.5,None,2024-10-16 16h27.07.445902 +0530,
150,v,26,3,107,3,,,,,263.8845366000023,,263.8718629000068,263.8845366000023,264.88487780001014,264.88487780001014,264.88487780001014,264.88487780001014,264.88487780001014,265.8842905000056,265.8842905000056,266.1521350000112,v,1,0.2522119999921415,None,866364,001,2024-10-16_16h27.00.880,sequene learning,2024.1.5,None,2024-10-16 16h27.07.445902 +0530,
-150,z,27,0,108,0,,,,,266.16730670000834,,266.1528713000007,266.16730670000834,267.16656409999996,267.16656409999996,267.16656409999996,267.16656409999996,267.16656409999996,268.1673135000019,268.1673135000019,268.58427830001165,z,1,0.40118090000760276,None,866364,001,2024-10-16_16h27.00.880,sequene learning,2024.1.5,None,2024-10-16 16h27.07.445902 +0530,
-50,x,27,1,109,1,,,,,268.60021470001084,,268.585250300006,268.60021470001084,269.5834324000025,269.5834324000025,269.5834324000025,269.5834324000025,269.60052890000225,270.5837167000136,270.5837167000136,270.8674697000097,x,1,0.2670508000010159,None,866364,001,2024-10-16_16h27.00.880,sequene learning,2024.1.5,None,2024-10-16 16h27.07.445902 +0530,
50,c,27,2,110,2,,,,,270.88300660000823,,270.86818190000486,270.88300660000823,271.8831552000047,271.8831552000047,271.8831552000047,271.8831552000047,271.8831552000047,272.8829209000105,272.8829209000105,273.21835770001053,c,1,0.33219200000166893,None,866364,001,2024-10-16_16h27.00.880,sequene learning,2024.1.5,None,2024-10-16 16h27.07.445902 +0530,
150,v,27,3,111,3,,,,,273.23264930000005,,273.2196823000122,273.23264930000005,274.23275960001047,274.23275960001047,274.23275960001047,274.23275960001047,274.23275960001047,275.23225820000516,275.23225820000516,275.51689610000176,v,1,0.27414360000693705,None,866364,001,2024-10-16_16h27.00.880,sequene learning,2024.1.5,None,2024-10-16 16h27.07.445902 +0530,
-150,z,28,0,112,0,,,,,275.5320236000116,,275.5184400000144,275.5320236000116,276.5318058000121,276.5318058000121,276.5318058000121,276.5318058000121,276.5318058000121,277.53177070000675,277.53177070000675,277.98284350000904,z,1,0.4446200999955181,None,866364,001,2024-10-16_16h27.00.880,sequene learning,2024.1.5,None,2024-10-16 16h27.07.445902 +0530,
-50,x,28,1,113,1,,,,,277.9983565000002,,277.983593500001,277.9983565000002,278.9982750000054,278.9982750000054,278.9982750000054,278.9982750000054,278.9982750000054,279.9977374000009,279.9977374000009,280.28267770000093,x,1,0.2824344000109704,None,866364,001,2024-10-16_16h27.00.880,sequene learning,2024.1.5,None,2024-10-16 16h27.07.445902 +0530,
50,c,28,2,114,2,,,,,280.2978449000075,,280.2835289000068,280.2978449000075,281.29753470000287,281.29753470000287,281.29753470000287,281.29753470000287,281.29753470000287,282.29711370001314,282.29711370001314,282.848447100012,c,1,0.5410070000070846,None,866364,001,2024-10-16_16h27.00.880,sequene learning,2024.1.5,None,2024-10-16 16h27.07.445902 +0530,
150,v,28,3,115,3,,,,,282.8640707000013,,282.84973020000325,282.8640707000013,283.86381640000036,283.86381640000036,283.86381640000036,283.86381640000036,283.86381640000036,284.86383440000645,284.86383440000645,285.18139700000756,v,1,0.3059402999933809,None,866364,001,2024-10-16_16h27.00.880,sequene learning,2024.1.5,None,2024-10-16 16h27.07.445902 +0530,
-150,z,29,0,116,0,,,,,285.1968340000021,,285.1825099000125,285.1968340000021,286.1966317000042,286.1966317000042,286.1966317000042,286.1966317000042,286.1966317000042,287.19654200000514,287.19654200000514,287.3461129000061,z,1,0.14721079998707864,None,866364,001,2024-10-16_16h27.00.880,sequene learning,2024.1.5,None,2024-10-16 16h27.07.445902 +0530,
-50,x,29,1,117,1,,,,,287.3629173000081,,287.34692290000385,287.3629173000081,288.34594030000153,288.34594030000153,288.34594030000153,288.34594030000153,288.3628646000143,289.362366500005,289.362366500005,289.63043620000826,x,1,0.2566594000090845,None,866364,001,2024-10-16_16h27.00.880,sequene learning,2024.1.5,None,2024-10-16 16h27.07.445902 +0530,
50,c,29,2,118,2,,,,,289.6460243000038,,289.6319352999999,289.6460243000038,290.64531560000614,290.64531560000614,290.64531560000614,290.64531560000614,290.64531560000614,291.64521760000207,291.64521760000207,291.92900580000423,c,1,0.2787224000057904,None,866364,001,2024-10-16_16h27.00.880,sequene learning,2024.1.5,None,2024-10-16 16h27.07.445902 +0530,
150,v,29,3,119,3,,,,,291.94509050001216,,291.929701400004,291.94509050001216,292.9287374000123,292.9287374000123,292.9287374000123,292.9287374000123,292.945361200007,293.9449242000119,293.9449242000119,294.3622449000104,v,1,0.41244989998813253,None,866364,001,2024-10-16_16h27.00.880,sequene learning,2024.1.5,None,2024-10-16 16h27.07.445902 +0530,
-150,z,30,0,120,0,,,,,294.3780361000099,,294.36301830000593,294.3780361000099,295.37700200000836,295.37700200000836,295.37700200000836,295.37700200000836,295.37700200000836,296.37747550000495,296.37747550000495,296.6458890000067,z,1,0.2669116000033682,None,866364,001,2024-10-16_16h27.00.880,sequene learning,2024.1.5,None,2024-10-16 16h27.07.445902 +0530,
-50,x,30,1,121,1,,,,,296.66112840001006,,296.64688000000024,296.66112840001006,297.6610335000005,297.6610335000005,297.6610335000005,297.6610335000005,297.6610335000005,298.6608477000118,298.6608477000118,298.91131330000644,x,1,0.24839009999413975,None,866364,001,2024-10-16_16h27.00.880,sequene learning,2024.1.5,None,2024-10-16 16h27.07.445902 +0530,
50,c,30,2,122,2,,,,,298.9272619000112,,298.91205480000644,298.9272619000112,299.9271657000063,299.9271657000063,299.9271657000063,299.9271657000063,299.9271657000063,300.92671270000574,300.92671270000574,301.2281020000082,c,1,0.29759800000465475,None,866364,001,2024-10-16_16h27.00.880,sequene learning,2024.1.5,None,2024-10-16 16h27.07.445902 +0530,
150,v,30,3,123,3,,,,,301.2436951000127,,301.2299647000036,301.2436951000127,302.2433882000041,302.2433882000041,302.2433882000041,302.2433882000041,302.2433882000041,303.24341190000996,303.24341190000996,303.5105336000124,v,1,0.2646527999895625,None,866364,001,2024-10-16_16h27.00.880,sequene learning,2024.1.5,None,2024-10-16 16h27.07.445902 +0530,
-150,z,31,0,124,0,,,,,303.52618880000955,,303.5115377000038,303.52618880000955,304.5258901000052,304.5258901000052,304.5258901000052,304.5258901000052,304.5258901000052,305.525830700004,305.525830700004,305.82705870000063,z,1,0.29447269999946,None,866364,001,2024-10-16_16h27.00.880,sequene learning,2024.1.5,None,2024-10-16 16h27.07.445902 +0530,
-50,x,31,1,125,1,,,,,305.84238520001236,,305.82846300001256,305.84238520001236,306.8423871000123,306.8423871000123,306.8423871000123,306.8423871000123,306.8423871000123,307.842089200014,307.842089200014,308.1273907000141,x,1,0.27130469999974594,None,866364,001,2024-10-16_16h27.00.880,sequene learning,2024.1.5,None,2024-10-16 16h27.07.445902 +0530,
50,c,31,2,126,2,,,,,308.14207960000203,,308.1292412000039,308.14207960000203,309.14191770000616,309.14191770000616,309.14191770000616,309.14191770000616,309.14191770000616,310.1414072000043,310.1414072000043,310.44310630000837,c,1,0.28574970000772737,None,866364,001,2024-10-16_16h27.00.880,sequene learning,2024.1.5,None,2024-10-16 16h27.07.445902 +0530,
150,v,31,3,127,3,,,,,310.4583309000009,,310.4447060000093,310.4583309000009,311.45819360000314,311.45819360000314,311.45819360000314,311.45819360000314,311.45819360000314,312.45782670000335,312.45782670000335,312.7595613000012,v,1,0.2862555000028806,None,866364,001,2024-10-16_16h27.00.880,sequene learning,2024.1.5,None,2024-10-16 16h27.07.445902 +0530,
-150,z,32,0,128,0,,,,,312.77437980000104,,312.76140360000136,312.77437980000104,313.77366840001196,313.77366840001196,313.77366840001196,313.77366840001196,313.77366840001196,314.77378300001146,314.77378300001146,315.07566220000444,z,1,0.2871979000046849,None,866364,001,2024-10-16_16h27.00.880,sequene learning,2024.1.5,None,2024-10-16 16h27.07.445902 +0530,
-50,x,32,1,129,1,,,,,315.09040190000087,,315.0773416000011,315.09040190000087,316.09042270001373,316.09042270001373,316.09042270001373,316.09042270001373,316.09042270001373,317.0902658000123,317.0902658000123,317.3752780000068,x,1,0.28070829999342095,None,866364,001,2024-10-16_16h27.00.880,sequene learning,2024.1.5,None,2024-10-16 16h27.07.445902 +0530,
50,c,32,2,130,2,,,,,317.3902181000012,,317.37650500000746,317.3902181000012,318.3898130000016,318.3898130000016,318.3898130000016,318.3898130000016,318.3898130000016,319.3895736000122,319.3895736000122,319.7082864000113,c,1,0.31666779999795835,None,866364,001,2024-10-16_16h27.00.880,sequene learning,2024.1.5,None,2024-10-16 16h27.07.445902 +0530,
150,v,32,3,131,3,,,,,319.72280420000607,,319.70975640001416,319.72280420000607,320.7230542000034,320.7230542000034,320.7230542000034,320.7230542000034,320.7230542000034,321.7223776000028,321.7223776000028,322.0071023000055,v,1,0.2816391000087606,None,866364,001,2024-10-16_16h27.00.880,sequene learning,2024.1.5,None,2024-10-16 16h27.07.445902 +0530,
-150,z,33,0,132,0,,,,,322.02234640000097,,322.00867629999993,322.02234640000097,323.02203470001405,323.02203470001405,323.02203470001405,323.02203470001405,323.02203470001405,324.0218898000021,324.0218898000021,324.4065602000046,z,1,0.3719367999874521,None,866364,001,2024-10-16_16h27.00.880,sequene learning,2024.1.5,None,2024-10-16 16h27.07.445902 +0530,
-50,x,33,1,133,1,,,,,324.4219112999999,,324.40819680001005,324.4219112999999,325.4214314000128,325.4214314000128,325.4214314000128,325.4214314000128,325.4214314000128,326.42117320001125,326.42117320001125,326.7396013000107,x,1,0.30782010000257287,None,866364,001,2024-10-16_16h27.00.880,sequene learning,2024.1.5,None,2024-10-16 16h27.07.445902 +0530,
50,c,33,2,134,2,,,,,326.75471440001274,,326.7411268000142,326.75471440001274,327.7546565000084,327.7546565000084,327.7546565000084,327.7546565000084,327.7546565000084,328.7543747000018,328.7543747000018,329.12140380000346,c,1,0.3657830999873113,None,866364,001,2024-10-16_16h27.00.880,sequene learning,2024.1.5,None,2024-10-16 16h27.07.445902 +0530,
150,v,33,3,135,3,,,,,329.1372351000027,,329.12216500000795,329.1372351000027,330.120444900007,330.120444900007,330.120444900007,330.120444900007,330.13749390000885,331.13700970000355,331.13700970000355,331.4216875000129,v,1,0.27400249999482185,None,866364,001,2024-10-16_16h27.00.880,sequene learning,2024.1.5,None,2024-10-16 16h27.07.445902 +0530,
-150,z,34,0,136,0,,,,,331.43711350001104,,331.42300510000496,331.43711350001104,332.4368846000143,332.4368846000143,332.4368846000143,332.4368846000143,332.4368846000143,333.4366302000126,333.4366302000126,333.83761820000655,z,1,0.39431380000314675,None,866364,001,2024-10-16_16h27.00.880,sequene learning,2024.1.5,None,2024-10-16 16h27.07.445902 +0530,
-50,x,34,1,137,1,,,,,333.852973400004,,333.8387608000048,333.852973400004,334.8530100000062,334.8530100000062,334.8530100000062,334.8530100000062,334.8530100000062,335.8526908000058,335.8526908000058,336.15646990000096,x,1,0.3006982000079006,None,866364,001,2024-10-16_16h27.00.880,sequene learning,2024.1.5,None,2024-10-16 16h27.07.445902 +0530,
50,c,34,2,138,2,,,,,336.16969190000964,,336.15812300000107,336.16969190000964,337.1689466000098,337.1689466000098,337.1689466000098,337.1689466000098,337.1689466000098,338.1687556000106,338.1687556000106,338.5709077000065,c,1,0.3876466999936383,None,866364,001,2024-10-16_16h27.00.880,sequene learning,2024.1.5,None,2024-10-16 16h27.07.445902 +0530,
150,v,34,3,139,3,,,,,338.5856377000018,,338.5725328000117,338.5856377000018,339.5844533000054,339.5844533000054,339.5844533000054,339.5844533000054,339.60143160000734,340.58515060000354,340.58515060000354,341.0022762000008,v,1,0.4155841000028886,None,866364,001,2024-10-16_16h27.00.880,sequene learning,2024.1.5,None,2024-10-16 16h27.07.445902 +0530,
-150,z,35,0,140,0,,,,,341.01808350000647,,341.0028442000039,341.01808350000647,342.0187772000063,342.0187772000063,342.0187772000063,342.0187772000063,342.0187772000063,343.01780850000796,343.01780850000796,343.3191969000036,z,1,0.2888775000028545,None,866364,001,2024-10-16_16h27.00.880,sequene learning,2024.1.5,None,2024-10-16 16h27.07.445902 +0530,
-50,x,35,1,141,1,,,,,343.33471900000586,,343.32031760000973,343.33471900000586,344.3345018000109,344.3345018000109,344.3345018000109,344.3345018000109,344.3345018000109,345.33407050000096,345.33407050000096,345.6524449000135,x,1,0.3062250000075437,None,866364,001,2024-10-16_16h27.00.880,sequene learning,2024.1.5,None,2024-10-16 16h27.07.445902 +0530,
50,c,35,2,142,2,,,,,345.6672925000021,,345.6538556000014,345.6672925000021,346.6671020000067,346.6671020000067,346.6671020000067,346.6671020000067,346.6671020000067,347.66603450001276,347.66603450001276,348.16864480001095,c,1,0.4889790000015637,None,866364,001,2024-10-16_16h27.00.880,sequene learning,2024.1.5,None,2024-10-16 16h27.07.445902 +0530,
150,v,35,3,143,3,,,,,348.18354720000934,,348.1701649000024,348.18354720000934,349.18339980000746,349.18339980000746,349.18339980000746,349.18339980000746,349.18339980000746,350.18291060000774,350.18291060000774,350.4680978000106,v,1,0.2700286000035703,None,866364,001,2024-10-16_16h27.00.880,sequene learning,2024.1.5,None,2024-10-16 16h27.07.445902 +0530,
-150,z,36,0,144,0,,,,,350.4831942000019,,350.4697798000125,350.4831942000019,351.48304600000847,351.48304600000847,351.48304600000847,351.48304600000847,351.48304600000847,352.48258630000055,352.48258630000055,352.7668141000031,z,1,0.2808035000052769,None,866364,001,2024-10-16_16h27.00.880,sequene learning,2024.1.5,None,2024-10-16 16h27.07.445902 +0530,
-50,x,36,1,145,1,,,,,352.78254710001056,,352.7680803000112,352.78254710001056,353.78209659999993,353.78209659999993,353.78209659999993,353.78209659999993,353.78209659999993,354.78191860001243,354.78191860001243,355.18256510001083,x,1,0.38715539999247994,None,866364,001,2024-10-16_16h27.00.880,sequene learning,2024.1.5,None,2024-10-16 16h27.07.445902 +0530,
50,c,36,2,146,2,,,,,355.19833550001204,,355.1833775000123,355.19833550001204,356.198390000005,356.198390000005,356.198390000005,356.198390000005,356.198390000005,357.19842170001357,357.19842170001357,357.4822972000111,c,1,0.282891999988351,None,866364,001,2024-10-16_16h27.00.880,sequene learning,2024.1.5,None,2024-10-16 16h27.07.445902 +0530,
150,v,36,3,147,3,,,,,357.49812990000646,,357.48297770001227,357.49812990000646,358.4982178000064,358.4982178000064,358.4982178000064,358.4982178000064,358.4982178000064,359.4978009000042,359.4978009000042,359.8821844000049,v,1,0.3692335999949137,None,866364,001,2024-10-16_16h27.00.880,sequene learning,2024.1.5,None,2024-10-16 16h27.07.445902 +0530,
-150,z,37,0,148,0,,,,,359.8970798000082,,359.8839418000134,359.8970798000082,360.8975313000119,360.8975313000119,360.8975313000119,360.8975313000119,360.8975313000119,361.8970118000143,361.8970118000143,362.39869150001323,z,1,0.4938511000073049,None,866364,001,2024-10-16_16h27.00.880,sequene learning,2024.1.5,None,2024-10-16 16h27.07.445902 +0530,
-50,x,37,1,149,1,,,,,362.4138108000043,,362.40027810000174,362.4138108000043,363.41345290000027,363.41345290000027,363.41345290000027,363.41345290000027,363.41345290000027,364.41304520000995,364.41304520000995,364.8480079000001,x,1,0.4308359999995446,None,866364,001,2024-10-16_16h27.00.880,sequene learning,2024.1.5,None,2024-10-16 16h27.07.445902 +0530,
50,c,37,2,150,2,,,,,364.86296690000745,,364.8493252000044,364.86296690000745,365.86306550000154,365.86306550000154,365.86306550000154,365.86306550000154,365.86306550000154,366.86270130000776,366.86270130000776,367.3136254000128,c,1,0.439124600001378,None,866364,001,2024-10-16_16h27.00.880,sequene learning,2024.1.5,None,2024-10-16 16h27.07.445902 +0530,
150,v,37,3,151,3,,,,,367.3292940000101,,367.31473070000357,367.3292940000101,368.329401400013,368.329401400013,368.329401400013,368.329401400013,368.329401400013,369.32909980000113,369.32909980000113,369.68005140000605,v,1,0.3454271000082372,None,866364,001,2024-10-16_16h27.00.880,sequene learning,2024.1.5,None,2024-10-16 16h27.07.445902 +0530,
-150,z,38,0,152,0,,,,,369.6956388000108,,369.68140180000046,369.6956388000108,370.6955106000096,370.6955106000096,370.6955106000096,370.6955106000096,370.6955106000096,371.6950918000075,371.6950918000075,372.02913830000034,z,1,0.3299886000022525,None,866364,001,2024-10-16_16h27.00.880,sequene learning,2024.1.5,None,2024-10-16 16h27.07.445902 +0530,
-50,x,38,1,153,1,,,,,372.0452011000016,,372.0298923000082,372.0452011000016,373.04506620000757,373.04506620000757,373.04506620000757,373.04506620000757,373.04506620000757,374.04450480001105,374.04450480001105,374.1292323000089,x,1,0.07346150001103524,None,866364,001,2024-10-16_16h27.00.880,sequene learning,2024.1.5,None,2024-10-16 16h27.07.445902 +0530,
50,c,38,2,154,2,,,,,374.1446114999999,,374.13055110001005,374.1446114999999,375.1443100000033,375.1443100000033,375.1443100000033,375.1443100000033,375.1443100000033,376.1441535000049,376.1441535000049,376.428501900009,c,1,0.2691932000016095,None,866364,001,2024-10-16_16h27.00.880,sequene learning,2024.1.5,None,2024-10-16 16h27.07.445902 +0530,
150,v,38,3,155,3,,,,,376.4442049000063,,376.4298247000115,376.4442049000063,377.4439710000006,377.4439710000006,377.4439710000006,377.4439710000006,377.4439710000006,378.44456970000465,378.44456970000465,378.74612040001375,v,1,0.2839202000031946,None,866364,001,2024-10-16_16h27.00.880,sequene learning,2024.1.5,None,2024-10-16 16h27.07.445902 +0530,
-150,z,39,0,156,0,,,,,378.7602743000025,,378.7481329000002,378.7602743000025,379.76004790001025,379.76004790001025,379.76004790001025,379.76004790001025,379.76004790001025,380.7596973000036,380.7596973000036,381.21085680001124,z,1,0.4440938999905484,None,866364,001,2024-10-16_16h27.00.880,sequene learning,2024.1.5,None,2024-10-16 16h27.07.445902 +0530,
-50,x,39,1,157,1,,,,,381.2266953000071,,381.2120285000128,381.2266953000071,382.2263024000131,382.2263024000131,382.2263024000131,382.2263024000131,382.2263024000131,383.22612310000113,383.22612310000113,383.6617110000079,x,1,0.42840780000551604,None,866364,001,2024-10-16_16h27.00.880,sequene learning,2024.1.5,None,2024-10-16 16h27.07.445902 +0530,
50,c,39,2,158,2,,,,,383.67600340000354,,383.6634722000017,383.67600340000354,384.6757270000089,384.6757270000089,384.6757270000089,384.6757270000089,384.6757270000089,385.67564140001195,385.67564140001195,385.92681200000516,c,1,0.2400115999917034,None,866364,001,2024-10-16_16h27.00.880,sequene learning,2024.1.5,None,2024-10-16 16h27.07.445902 +0530,
150,v,39,3,159,3,,,,,385.94203160000325,,385.9281529,385.94203160000325,386.94212980000884,386.94212980000884,386.94212980000884,386.94212980000884,386.94212980000884,387.9418990000122,387.9418990000122,388.37682050000876,v,1,0.42714970000088215,None,866364,001,2024-10-16_16h27.00.880,sequene learning,2024.1.5,None,2024-10-16 16h27.07.445902 +0530,
-150,z,40,0,160,0,,,,,388.3915821000119,,388.3784142000077,388.3915821000119,389.39122340000176,389.39122340000176,389.39122340000176,389.39122340000176,389.39122340000176,390.3907168000005,390.3907168000005,390.8424263000052,z,1,0.4467633000022033,None,866364,001,2024-10-16_16h27.00.880,sequene learning,2024.1.5,None,2024-10-16 16h27.07.445902 +0530,
-50,x,40,1,161,1,,,,,390.8577179000131,,390.84380400000373,390.8577179000131,391.8572262000089,391.8572262000089,391.8572262000089,391.8572262000089,391.8572262000089,392.8570279000123,392.8570279000123,393.17522630000894,x,1,0.31005119999463204,None,866364,001,2024-10-16_16h27.00.880,sequene learning,2024.1.5,None,2024-10-16 16h27.07.445902 +0530,
50,c,40,2,162,2,,,,,393.1907041000086,,393.17661430001317,393.1907041000086,394.1904041000089,394.1904041000089,394.1904041000089,394.1904041000089,394.1904041000089,395.190236200011,395.190236200011,395.65862280000874,c,1,0.4624255999951856,None,866364,001,2024-10-16_16h27.00.880,sequene learning,2024.1.5,None,2024-10-16 16h27.07.445902 +0530,
150,v,40,3,163,3,,,,,395.67335780001304,,395.6600228000025,395.67335780001304,396.67325930000516,396.67325930000516,396.67325930000516,396.67325930000516,396.67325930000516,397.67298120001215,397.67298120001215,398.2916055000096,v,1,0.6152639999927487,None,866364,001,2024-10-16_16h27.00.880,sequene learning,2024.1.5,None,2024-10-16 16h27.07.445902 +0530,
-150,z,41,0,164,0,,,,,398.30594610000844,,398.29260330001125,398.30594610000844,399.30570570001146,399.30570570001146,399.30570570001146,399.30570570001146,399.30570570001146,400.30544040001405,400.30544040001405,400.8910314000095,z,1,0.5797748000040883,None,866364,001,2024-10-16_16h27.00.880,sequene learning,2024.1.5,None,2024-10-16 16h27.07.445902 +0530,
-50,x,41,1,165,1,,,,,400.90736270000343,,400.8975892000017,400.90736270000343,401.9052083000133,401.9052083000133,401.9052083000133,401.9052083000133,401.92200490001414,402.9048724000022,402.9048724000022,403.2398404000123,x,1,0.32663970001158305,None,866364,001,2024-10-16_16h27.00.880,sequene learning,2024.1.5,None,2024-10-16 16h27.07.445902 +0530,
50,c,41,2,166,2,,,,,403.25498470000457,,403.2412536000047,403.25498470000457,404.2550649000041,404.2550649000041,404.2550649000041,404.2550649000041,404.2550649000041,405.25464190001367,405.25464190001367,405.7388357000018,c,1,0.48301910000736825,None,866364,001,2024-10-16_16h27.00.880,sequene learning,2024.1.5,None,2024-10-16 16h27.07.445902 +0530,
150,v,41,3,167,3,,,,,405.75432290000026,,405.7396584000089,405.75432290000026,406.7543272000039,406.7543272000039,406.7543272000039,406.7543272000039,406.7543272000039,407.7539345000114,407.7539345000114,408.1219337000075,v,1,0.3663284000067506,None,866364,001,2024-10-16_16h27.00.880,sequene learning,2024.1.5,None,2024-10-16 16h27.07.445902 +0530,
-150,z,42,0,168,0,,,,,408.13670150001417,,408.12335190000886,408.13670150001417,409.1373708000028,409.1373708000028,409.1373708000028,409.1373708000028,409.1373708000028,410.13711820000026,410.13711820000026,410.62195690000954,z,1,0.47943859999941196,None,866364,001,2024-10-16_16h27.00.880,sequene learning,2024.1.5,None,2024-10-16 16h27.07.445902 +0530,
-50,x,42,1,169,1,,,,,410.6367534000019,,410.6233984000137,410.6367534000019,411.6367487000098,411.6367487000098,411.6367487000098,411.6367487000098,411.6367487000098,412.63678290000826,412.63678290000826,412.92116610000085,x,1,0.27563269999518525,None,866364,001,2024-10-16_16h27.00.880,sequene learning,2024.1.5,None,2024-10-16 16h27.07.445902 +0530,
50,c,42,2,170,2,,,,,412.93639729999995,,412.92246670000895,412.93639729999995,413.9364702000021,413.9364702000021,413.9364702000021,413.9364702000021,413.9364702000021,414.93580390000716,414.93580390000716,415.2539725000097,c,1,0.3099651999946218,None,866364,001,2024-10-16_16h27.00.880,sequene learning,2024.1.5,None,2024-10-16 16h27.07.445902 +0530,
150,v,42,3,171,3,,,,,415.2691318000143,,415.25541370001156,415.2691318000143,416.2681302000128,416.2681302000128,416.2681302000128,416.2681302000128,416.2681302000128,417.2687888000073,417.2687888000073,417.6040294000122,v,1,0.31933009999920614,None,866364,001,2024-10-16_16h27.00.880,sequene learning,2024.1.5,None,2024-10-16 16h27.07.445902 +0530,
-150,z,43,0,172,0,,,,,417.618959000014,,417.6059066000016,417.618959000014,418.6186403000029,418.6186403000029,418.6186403000029,418.6186403000029,418.6186403000029,419.61827110000013,419.61827110000013,419.903381600001,z,1,0.27019290000316687,None,866364,001,2024-10-16_16h27.00.880,sequene learning,2024.1.5,None,2024-10-16 16h27.07.445902 +0530,
-50,x,43,1,173,1,,,,,419.91848560000653,,419.9050444000022,419.91848560000653,420.91797020001104,420.91797020001104,420.91797020001104,420.91797020001104,420.91797020001104,421.917863900002,421.917863900002,422.2191199000081,x,1,0.2964580000116257,None,866364,001,2024-10-16_16h27.00.880,sequene learning,2024.1.5,None,2024-10-16 16h27.07.445902 +0530,
50,c,43,2,174,2,,,,,422.23446940000576,,422.2205205000064,422.23446940000576,423.23439290000533,423.23439290000533,423.23439290000533,423.23439290000533,423.23439290000533,424.2343991000089,424.2343991000089,424.51851230001193,c,1,0.2734649000049103,None,866364,001,2024-10-16_16h27.00.880,sequene learning,2024.1.5,None,2024-10-16 16h27.07.445902 +0530,
150,v,43,3,175,3,,,,,424.5341245000018,,424.519984700004,424.5341245000018,425.5337181000068,425.5337181000068,425.5337181000068,425.5337181000068,425.5337181000068,426.53353750001406,426.53353750001406,426.80242890000227,v,1,0.2614659999962896,None,866364,001,2024-10-16_16h27.00.880,sequene learning,2024.1.5,None,2024-10-16 16h27.07.445902 +0530,
-150,z,44,0,176,0,,,,,426.81678850000026,,426.8040047000104,426.81678850000026,427.81674790001125,427.81674790001125,427.81674790001125,427.81674790001125,427.81674790001125,428.8166124000127,428.8166124000127,429.4679970000143,z,1,0.6493732999952044,None,866364,001,2024-10-16_16h27.00.880,sequene learning,2024.1.5,None,2024-10-16 16h27.07.445902 +0530,
-50,x,44,1,177,1,,,,,429.48288820000016,,429.46931040000345,429.48288820000016,430.48342160000175,430.48342160000175,430.48342160000175,430.48342160000175,430.48342160000175,431.48242450000544,431.48242450000544,431.93371070000285,x,1,0.4487754000001587,None,866364,001,2024-10-16_16h27.00.880,sequene learning,2024.1.5,None,2024-10-16 16h27.07.445902 +0530,
50,c,44,2,178,2,,,,,431.94884920000914,,431.9350282000087,431.94884920000914,432.94870230001106,432.94870230001106,432.94870230001106,432.94870230001106,432.94870230001106,433.94858800001384,433.94858800001384,434.4502946000139,c,1,0.4914019999996526,None,866364,001,2024-10-16_16h27.00.880,sequene learning,2024.1.5,None,2024-10-16 16h27.07.445902 +0530,
150,v,44,3,179,3,,,,,434.46536300001026,,434.4522083000047,434.46536300001026,435.4650602000038,435.4650602000038,435.4650602000038,435.4650602000038,435.4650602000038,436.46480930001417,436.46480930001417,436.73327920000884,v,1,0.2601437000121223,None,866364,001,2024-10-16_16h27.00.880,sequene learning,2024.1.5,None,2024-10-16 16h27.07.445902 +0530,
-150,z,45,0,180,0,,,,,436.7477678000141,,436.7342106000142,436.7477678000141,437.74756290001096,437.74756290001096,437.74756290001096,437.74756290001096,437.74756290001096,438.74748490001366,438.74748490001366,439.0484077000001,z,1,0.29536109999753535,None,866364,001,2024-10-16_16h27.00.880,sequene learning,2024.1.5,None,2024-10-16 16h27.07.445902 +0530,
-50,x,45,1,181,1,,,,,439.0638872000127,,439.0502019000123,439.0638872000127,440.06430920001003,440.06430920001003,440.06430920001003,440.06430920001003,440.06430920001003,441.06370980000065,441.06370980000065,442.2481058000121,x,1,1.1798372999910498,None,866364,001,2024-10-16_16h27.00.880,sequene learning,2024.1.5,None,2024-10-16 16h27.07.445902 +0530,
50,c,45,2,182,2,,,,,442.26353270000254,,442.2494895000127,442.26353270000254,443.26330840001174,443.26330840001174,443.26330840001174,443.26330840001174,443.26330840001174,444.26293400001305,444.26293400001305,444.5808939000126,c,1,0.31216469999344554,None,866364,001,2024-10-16_16h27.00.880,sequene learning,2024.1.5,None,2024-10-16 16h27.07.445902 +0530,
150,v,45,3,183,3,,,,,444.59626790000766,,444.5822279000131,444.59626790000766,445.59595820000686,445.59595820000686,445.59595820000686,445.59595820000686,445.59595820000686,446.59582670000964,446.59582670000964,446.91372980001324,v,1,0.31488739998894744,None,866364,001,2024-10-16_16h27.00.880,sequene learning,2024.1.5,None,2024-10-16 16h27.07.445902 +0530,
-150,z,46,0,184,0,,,,,446.9294588000048,,446.9150939000101,446.9294588000048,447.928943100007,447.928943100007,447.928943100007,447.928943100007,447.928943100007,448.9288084,448.9288084,449.32950070001243,z,1,0.38830500000040047,None,866364,001,2024-10-16_16h27.00.880,sequene learning,2024.1.5,None,2024-10-16 16h27.07.445902 +0530,
-50,x,46,1,185,1,,,,,449.34520030001295,,449.3306355000095,449.34520030001295,450.3448851000139,450.3448851000139,450.3448851000139,450.3448851000139,450.3448851000139,451.3446990000084,451.3446990000084,451.71220720000565,x,1,0.35124269999505486,None,866364,001,2024-10-16_16h27.00.880,sequene learning,2024.1.5,None,2024-10-16 16h27.07.445902 +0530,
50,c,46,2,186,2,,,,,451.72820610000053,,451.71328190001077,451.72820610000053,452.72796480001125,452.72796480001125,452.72796480001125,452.72796480001125,452.72796480001125,453.7286047000089,453.7286047000089,454.09574980000616,c,1,0.36489919999439735,None,866364,001,2024-10-16_16h27.00.880,sequene learning,2024.1.5,None,2024-10-16 16h27.07.445902 +0530,
150,v,46,3,187,3,,,,,454.1107793000119,,454.097162200007,454.1107793000119,455.11115780001273,455.11115780001273,455.11115780001273,455.11115780001273,455.11115780001273,456.11044570000377,456.11044570000377,456.4945570000127,v,1,0.3815541999938432,None,866364,001,2024-10-16_16h27.00.880,sequene learning,2024.1.5,None,2024-10-16 16h27.07.445902 +0530,
-150,z,47,0,188,0,,,,,456.5095961000043,,456.49617120000767,456.5095961000043,457.51034400000935,457.51034400000935,457.51034400000935,457.51034400000935,457.51034400000935,458.5100003000116,458.5100003000116,458.9779797000083,z,1,0.4579082999989623,None,866364,001,2024-10-16_16h27.00.880,sequene learning,2024.1.5,None,2024-10-16 16h27.07.445902 +0530,
-50,x,47,1,189,1,,,,,458.99317169999995,,458.97924060000514,458.99317169999995,459.992782900008,459.992782900008,459.992782900008,459.992782900008,459.992782900008,460.99276510000345,460.99276510000345,461.3780325000116,x,1,0.3682719999924302,None,866364,001,2024-10-16_16h27.00.880,sequene learning,2024.1.5,None,2024-10-16 16h27.07.445902 +0530,
50,c,47,2,190,2,,,,,461.3927013000066,,461.37982100000954,461.3927013000066,462.39201680000406,462.39201680000406,462.39201680000406,462.39201680000406,462.39201680000406,463.39206090000516,463.39206090000516,463.9598654000001,c,1,0.5523734000016702,None,866364,001,2024-10-16_16h27.00.880,sequene learning,2024.1.5,None,2024-10-16 16h27.07.445902 +0530,
150,v,47,3,191,3,,,,,463.975634900009,,463.96121830001357,463.975634900009,464.9755031000095,464.9755031000095,464.9755031000095,464.9755031000095,464.9755031000095,465.9751811000024,465.9751811000024,466.31004180001037,v,1,0.3221806999936234,None,866364,001,2024-10-16_16h27.00.880,sequene learning,2024.1.5,None,2024-10-16 16h27.07.445902 +0530,
-150,z,48,0,192,0,,,,,466.3249858000054,,466.31160480000835,466.3249858000054,467.32472280001093,467.32472280001093,467.32472280001093,467.32472280001093,467.32472280001093,468.32433120001224,468.32433120001224,469.27683460000844,z,1,0.9351434999989579,None,866364,001,2024-10-16_16h27.00.880,sequene learning,2024.1.5,None,2024-10-16 16h27.07.445902 +0530,
-50,x,48,1,193,1,,,,,469.29097660000843,,469.27874280000106,469.29097660000843,470.29086610001104,470.29086610001104,470.29086610001104,470.29086610001104,470.29086610001104,471.2905984000099,471.2905984000099,472.39173870001105,x,1,1.0956847000052221,None,866364,001,2024-10-16_16h27.00.880,sequene learning,2024.1.5,None,2024-10-16 16h27.07.445902 +0530,
50,c,48,2,194,2,,,,,472.40718610001204,,472.39304020001146,472.40718610001204,473.4070628000045,473.4070628000045,473.4070628000045,473.4070628000045,473.4070628000045,474.4066671000037,474.4066671000037,474.8579788000061,c,1,0.44643619999988005,None,866364,001,2024-10-16_16h27.00.880,sequene learning,2024.1.5,None,2024-10-16 16h27.07.445902 +0530,
150,v,48,3,195,3,,,,,474.873339200014,,474.8592620000127,474.873339200014,475.8729200000089,475.8729200000089,475.8729200000089,475.8729200000089,475.8729200000089,476.87282270001015,476.87282270001015,477.340491400013,v,1,0.46352099999785423,None,866364,001,2024-10-16_16h27.00.880,sequene learning,2024.1.5,None,2024-10-16 16h27.07.445902 +0530,
-150,z,49,0,196,0,,,,,477.35604380001314,,477.34176580001076,477.35604380001314,478.3558125000127,478.3558125000127,478.3558125000127,478.3558125000127,478.3558125000127,479.3554329000035,479.3554329000035,479.7567567000078,z,1,0.39503099999274127,None,866364,001,2024-10-16_16h27.00.880,sequene learning,2024.1.5,None,2024-10-16 16h27.07.445902 +0530,
-50,x,49,1,197,1,,,,,479.7721651000029,,479.7578452000016,479.7721651000029,480.7719211000076,480.7719211000076,480.7719211000076,480.7719211000076,480.7719211000076,481.7715804000036,481.7715804000036,482.43973630000255,x,1,0.6607070999889402,None,866364,001,2024-10-16_16h27.00.880,sequene learning,2024.1.5,None,2024-10-16 16h27.07.445902 +0530,
50,c,49,2,198,2,,,,,482.45498380000936,,482.4411984000035,482.45498380000936,483.4546609000099,483.4546609000099,483.4546609000099,483.4546609000099,483.4546609000099,484.454321000012,484.454321000012,484.83917590000783,c,1,0.37457820000417996,None,866364,001,2024-10-16_16h27.00.880,sequene learning,2024.1.5,None,2024-10-16 16h27.07.445902 +0530,
150,v,49,3,199,3,,,,,484.8543539000093,,484.84053340001265,484.8543539000093,485.8542591000005,485.8542591000005,485.8542591000005,485.8542591000005,485.8542591000005,486.8540362000058,486.8540362000058,487.4558667000092,v,1,0.5846834999974817,None,866364,001,2024-10-16_16h27.00.880,sequene learning,2024.1.5,None,2024-10-16 16h27.07.445902 +0530,
-150,z,,,,,0,0,0,0,487.51356730000407,,487.5066760000045,487.51356730000407,488.470063700006,488.470063700006,488.470063700006,488.470063700006,488.5202648000122,489.47013090000837,489.47013090000837,490.35439910000423,z,1,0.8726587999990443,None,866364,001,2024-10-16_16h27.00.880,sequene learning,2024.1.5,None,2024-10-16 16h27.07.445902 +0530,
-150,z,,,,,0,1,1,0,490.36996550000913,,490.35626940001384,490.36996550000913,491.36969040000986,491.36969040000986,491.36969040000986,491.36969040000986,491.36969040000986,492.3695152,492.3695152,493.3371017000027,z,1,0.9645192999887513,None,866364,001,2024-10-16_16h27.00.880,sequene learning,2024.1.5,None,2024-10-16 16h27.07.445902 +0530,
50,c,,,,,0,2,2,2,493.3525323000067,,493.3383648000017,493.3525323000067,494.35248760000104,494.35248760000104,494.35248760000104,494.35248760000104,494.35248760000104,495.35195530000783,495.35195530000783,496.38802580001357,c,1,1.0220401999977184,None,866364,001,2024-10-16_16h27.00.880,sequene learning,2024.1.5,None,2024-10-16 16h27.07.445902 +0530,
50,c,,,,,0,3,3,2,496.4019657000026,,496.38958390000334,496.4019657000026,497.4018766000081,497.4018766000081,497.4018766000081,497.4018766000081,497.4018766000081,498.40128930000355,498.40128930000355,499.2859191000025,c,1,0.8760739999997895,None,866364,001,2024-10-16_16h27.00.880,sequene learning,2024.1.5,None,2024-10-16 16h27.07.445902 +0530,
-50,x,,,,,1,0,4,1,499.30141180001374,,499.28741110001283,499.30141180001374,500.3011233000143,500.3011233000143,500.3011233000143,500.3011233000143,500.3011233000143,501.30099470001005,501.30099470001005,502.03566110000247,x,1,0.7222570000012638,None,866364,001,2024-10-16_16h27.00.880,sequene learning,2024.1.5,None,2024-10-16 16h27.07.445902 +0530,
150,v,,,,,1,1,5,3,502.0505407000019,,502.03724940000393,502.0505407000019,503.05046550001134,503.05046550001134,503.05046550001134,503.05046550001134,503.05046550001134,504.0502164000063,504.0502164000063,505.0513975000067,v,1,0.9928605000022799,None,866364,001,2024-10-16_16h27.00.880,sequene learning,2024.1.5,None,2024-10-16 16h27.07.445902 +0530,
-150,z,,,,,1,2,6,0,505.0669661000138,,505.0526158000139,505.0669661000138,506.06659670000954,506.06659670000954,506.06659670000954,506.06659670000954,506.06659670000954,507.0665064000059,507.0665064000059,507.71894910000265,z,1,0.6440222000092035,None,866364,001,2024-10-16_16h27.00.880,sequene learning,2024.1.5,None,2024-10-16 16h27.07.445902 +0530,
50,c,,,,,1,3,7,2,507.7328383000131,,507.72120130000985,507.7328383000131,508.7328506000049,508.7328506000049,508.7328506000049,508.7328506000049,508.7328506000049,509.7326247000019,509.7326247000019,510.917998600009,c,1,1.1675997999991523,None,866364,001,2024-10-16_16h27.00.880,sequene learning,2024.1.5,None,2024-10-16 16h27.07.445902 +0530,
150,v,,,,,2,0,8,3,510.93209580000257,,510.9200126000069,510.93209580000257,511.93191100000695,511.93191100000695,511.93191100000695,511.93191100000695,511.93191100000695,512.9308971000137,512.9308971000137,513.8164653000131,v,1,0.8759119000023929,None,866364,001,2024-10-16_16h27.00.880,sequene learning,2024.1.5,None,2024-10-16 16h27.07.445902 +0530,
150,v,,,,,2,1,9,3,513.831654700014,,513.8178302000015,513.831654700014,514.8313458000048,514.8313458000048,514.8313458000048,514.8313458000048,514.8313458000048,515.8310406000091,515.8310406000091,516.332401800013,v,1,0.4964384000049904,None,866364,001,2024-10-16_16h27.00.880,sequene learning,2024.1.5,None,2024-10-16 16h27.07.445902 +0530,
50,c,,,,,2,2,10,2,516.3475115000037,,516.334120200001,516.3475115000037,517.3473448000004,517.3473448000004,517.3473448000004,517.3473448000004,517.3473448000004,518.3471571000118,518.3471571000118,519.2160467000067,c,1,0.8534742999909213,None,866364,001,2024-10-16_16h27.00.880,sequene learning,2024.1.5,None,2024-10-16 16h27.07.445902 +0530,
150,v,,,,,2,3,11,3,519.2305472000007,,519.2183358000038,519.2305472000007,520.2302732000098,520.2302732000098,520.2302732000098,520.2302732000098,520.2302732000098,521.2301200000074,521.2301200000074,522.1134080000047,v,1,0.8705207999882987,None,866364,001,2024-10-16_16h27.00.880,sequene learning,2024.1.5,None,2024-10-16 16h27.07.445902 +0530,
50,c,,,,,3,0,12,2,522.1295299000049,,522.1138737000001,522.1295299000049,523.11297870001,523.11297870001,523.11297870001,523.11297870001,523.1295206000068,524.1294454000017,524.1294454000017,525.0303314000048,c,1,0.8945951999921817,None,866364,001,2024-10-16_16h27.00.880,sequene learning,2024.1.5,None,2024-10-16 16h27.07.445902 +0530,
150,v,,,,,3,1,13,3,525.0456836000085,,525.0313268000027,525.0456836000085,526.0457328000048,526.0457328000048,526.0457328000048,526.0457328000048,526.0457328000048,527.0451865000068,527.0451865000068,527.7474687000067,v,1,0.6856950000073994,None,866364,001,2024-10-16_16h27.00.880,sequene learning,2024.1.5,None,2024-10-16 16h27.07.445902 +0530,
-150,z,,,,,3,2,14,0,527.7621203000017,,527.7492231000069,527.7621203000017,528.7616536000132,528.7616536000132,528.7616536000132,528.7616536000132,528.7616536000132,529.7612101000122,529.7612101000122,530.3961609000107,z,1,0.6321278999967035,None,866364,001,2024-10-16_16h27.00.880,sequene learning,2024.1.5,None,2024-10-16 16h27.07.445902 +0530,
-150,z,,,,,3,3,15,0,530.4114887000032,,530.3974701000116,530.4114887000032,531.4113844000094,531.4113844000094,531.4113844000094,531.4113844000094,531.4113844000094,532.4111036000104,532.4111036000104,532.9117001000122,z,1,0.4845936000056099,None,866364,001,2024-10-16_16h27.00.880,sequene learning,2024.1.5,None,2024-10-16 16h27.07.445902 +0530,
150,v,,,,,4,0,16,3,532.9268517000019,,532.9134754000115,532.9268517000019,533.927465300003,533.927465300003,533.927465300003,533.927465300003,533.927465300003,534.9269737000141,534.9269737000141,535.5121911000024,v,1,0.5687430999969365,None,866364,001,2024-10-16_16h27.00.880,sequene learning,2024.1.5,None,2024-10-16 16h27.07.445902 +0530,
150,v,,,,,4,1,17,3,535.5271262000024,,535.5138503000053,535.5271262000024,536.5268254000111,536.5268254000111,536.5268254000111,536.5268254000111,536.5268254000111,537.5264184000116,537.5264184000116,538.1117699000024,v,1,0.5694498999946518,None,866364,001,2024-10-16_16h27.00.880,sequene learning,2024.1.5,None,2024-10-16 16h27.07.445902 +0530,
-50,x,,,,,4,2,18,1,538.126565700004,,538.113543600004,538.126565700004,539.1262663000089,539.1262663000089,539.1262663000089,539.1262663000089,539.1262663000089,540.1258998000121,540.1258998000121,540.8598469000135,x,1,0.7317706000030739,None,866364,001,2024-10-16_16h27.00.880,sequene learning,2024.1.5,None,2024-10-16 16h27.07.445902 +0530,
-150,z,,,,,4,3,19,0,540.8748884000088,,540.8613393000123,540.8748884000088,541.8756025000039,541.8756025000039,541.8756025000039,541.8756025000039,541.8756025000039,542.8752782000083,542.8752782000083,543.8602649000095,z,1,0.9823935000022175,None,866364,001,2024-10-16_16h27.00.880,sequene learning,2024.1.5,None,2024-10-16 16h27.07.445902 +0530,
150,v,,,,,5,0,20,3,543.8750929000089,,543.8618686000118,543.8750929000089,544.8749125000031,544.8749125000031,544.8749125000031,544.8749125000031,544.8749125000031,545.8748470000137,545.8748470000137,546.3765788000019,v,1,0.4978009999904316,None,866364,001,2024-10-16_16h27.00.880,sequene learning,2024.1.5,None,2024-10-16 16h27.07.445902 +0530,
150,v,,,,,5,1,21,3,546.3908982000139,,546.3781039000023,546.3908982000139,547.3909951000096,547.3909951000096,547.3909951000096,547.3909951000096,547.3909951000096,548.3906062000024,548.3906062000024,548.9080862000119,v,1,0.5104673000023467,None,866364,001,2024-10-16_16h27.00.880,sequene learning,2024.1.5,None,2024-10-16 16h27.07.445902 +0530,
150,v,,,,,5,2,22,3,548.9240875000105,,548.9095160000143,548.9240875000105,549.9235963000101,549.9235963000101,549.9235963000101,549.9235963000101,549.9235963000101,550.9237069000083,550.9237069000083,551.4411832000042,v,1,0.5119822999986354,None,866364,001,2024-10-16_16h27.00.880,sequene learning,2024.1.5,None,2024-10-16 16h27.07.445902 +0530,
-50,x,,,,,5,3,23,1,551.4569342000032,,551.4424635000032,551.4569342000032,552.4568560000043,552.4568560000043,552.4568560000043,552.4568560000043,552.4568560000043,553.4562413000094,553.4562413000094,554.3751611000043,x,1,0.9157870999915758,None,866364,001,2024-10-16_16h27.00.880,sequene learning,2024.1.5,None,2024-10-16 16h27.07.445902 +0530,
-50,x,,,,,6,0,24,1,554.3893039000104,,554.3763161000097,554.3893039000104,555.389430500014,555.389430500014,555.389430500014,555.389430500014,555.389430500014,556.3889484000101,556.3889484000101,557.2571609000006,x,1,0.8651228000089759,None,866364,001,2024-10-16_16h27.00.880,sequene learning,2024.1.5,None,2024-10-16 16h27.07.445902 +0530,
-150,z,,,,,6,1,25,0,557.2722018000059,,557.2584843000077,557.2722018000059,558.2722325000068,558.2722325000068,558.2722325000068,558.2722325000068,558.2722325000068,559.2717772000033,559.2717772000033,560.0235765000107,z,1,0.7347517000016524,None,866364,001,2024-10-16_16h27.00.880,sequene learning,2024.1.5,None,2024-10-16 16h27.07.445902 +0530,
50,c,,,,,6,2,26,2,560.0384029000124,,560.0251815000083,560.0384029000124,561.0381513000029,561.0381513000029,561.0381513000029,561.0381513000029,561.0381513000029,562.0378516000055,562.0378516000055,563.2723599000019,c,1,1.2260210000094958,None,866364,001,2024-10-16_16h27.00.880,sequene learning,2024.1.5,None,2024-10-16 16h27.07.445902 +0530,
50,c,,,,,6,3,27,2,563.2877129000117,,563.2737301000016,563.2877129000117,564.2875106000138,564.2875106000138,564.2875106000138,564.2875106000138,564.2875106000138,565.2871476,565.2871476,565.9725093000015,c,1,0.671070199998212,None,866364,001,2024-10-16_16h27.00.880,sequene learning,2024.1.5,None,2024-10-16 16h27.07.445902 +0530,
-50,x,,,,,7,0,28,1,565.9871239000058,,565.9744104000129,565.9871239000058,566.9867741000053,566.9867741000053,566.9867741000053,566.9867741000053,566.9867741000053,567.9866770000081,567.9866770000081,568.6214031000127,x,1,0.6253006999904756,None,866364,001,2024-10-16_16h27.00.880,sequene learning,2024.1.5,None,2024-10-16 16h27.07.445902 +0530,
150,v,,,,,7,1,29,3,568.6364376000129,,568.6226603000105,568.6364376000129,569.6362365000095,569.6362365000095,569.6362365000095,569.6362365000095,569.6362365000095,570.6360723000107,570.6360723000107,571.3878609000094,v,1,0.7487228999962099,None,866364,001,2024-10-16_16h27.00.880,sequene learning,2024.1.5,None,2024-10-16 16h27.07.445902 +0530,
-150,z,,,,,7,2,30,0,571.402588300014,,571.3890765000106,571.402588300014,572.4022874000075,572.4022874000075,572.4022874000075,572.4022874000075,572.4022874000075,573.4020510000119,573.4020510000119,573.886820300002,z,1,0.4702301999932388,None,866364,001,2024-10-16_16h27.00.880,sequene learning,2024.1.5,None,2024-10-16 16h27.07.445902 +0530,
-50,x,,,,,7,3,31,1,573.9021828000114,,573.8884996000124,573.9021828000114,574.902302500006,574.902302500006,574.902302500006,574.902302500006,574.902302500006,575.9016636000015,575.9016636000015,576.9851469000132,x,1,1.0793279000063194,None,866364,001,2024-10-16_16h27.00.880,sequene learning,2024.1.5,None,2024-10-16 16h27.07.445902 +0530,
-150,z,,,,,8,0,32,0,577.0005654000124,,576.9864202000026,577.0005654000124,578.0013622000115,578.0013622000115,578.0013622000115,578.0013622000115,578.0013622000115,579.0011842000094,579.0011842000094,579.5516510000016,z,1,0.5434514999942621,None,866364,001,2024-10-16_16h27.00.880,sequene learning,2024.1.5,None,2024-10-16 16h27.07.445902 +0530,
-50,x,,,,,8,1,33,1,579.5675885000092,,579.552560400014,579.5675885000092,580.567489100009,580.567489100009,580.567489100009,580.567489100009,580.567489100009,581.5669864000083,581.5669864000083,582.1873885000095,x,1,0.6075980000023264,None,866364,001,2024-10-16_16h27.00.880,sequene learning,2024.1.5,None,2024-10-16 16h27.07.445902 +0530,
-50,x,,,,,8,2,34,1,582.2003685000091,,582.1883709000103,582.2003685000091,583.2002711000096,583.2002711000096,583.2002711000096,583.2002711000096,583.2002711000096,584.2000071000075,584.2000071000075,584.7684510000108,x,1,0.5667607999930624,None,866364,001,2024-10-16_16h27.00.880,sequene learning,2024.1.5,None,2024-10-16 16h27.07.445902 +0530,
-150,z,,,,,8,3,35,0,584.7830279000045,,584.7698440000095,584.7830279000045,585.7829858000041,585.7829858000041,585.7829858000041,585.7829858000041,585.7829858000041,586.7824177000002,586.7824177000002,587.4014791000081,z,1,0.6171721999999136,None,866364,001,2024-10-16_16h27.00.880,sequene learning,2024.1.5,None,2024-10-16 16h27.07.445902 +0530,
-150,z,,,,,9,0,36,0,587.4160346000135,,587.4027806000086,587.4160346000135,588.4159019000072,588.4159019000072,588.4159019000072,588.4159019000072,588.4159019000072,589.4155224000133,589.4155224000133,589.9331577000121,z,1,0.5121007999987341,None,866364,001,2024-10-16_16h27.00.880,sequene learning,2024.1.5,None,2024-10-16 16h27.07.445902 +0530,
150,v,,,,,9,1,37,3,589.9488320000091,,589.9343435000046,589.9488320000091,590.9484369000129,590.9484369000129,590.9484369000129,590.9484369000129,590.9484369000129,591.9484996000101,591.9484996000101,593.0158575000096,v,1,1.065309099998558,None,866364,001,2024-10-16_16h27.00.880,sequene learning,2024.1.5,None,2024-10-16 16h27.07.445902 +0530,
50,c,,,,,9,2,38,2,593.0303694000031,,593.0171211000124,593.0303694000031,594.0311421000079,594.0311421000079,594.0311421000079,594.0311421000079,594.0311421000079,595.0309158000018,595.0309158000018,595.9652389000112,c,1,0.9315234000096098,None,866364,001,2024-10-16_16h27.00.880,sequene learning,2024.1.5,None,2024-10-16 16h27.07.445902 +0530,
50,c,,,,,9,3,39,2,595.9807403000013,,595.966476200003,595.9807403000013,596.9803158000141,596.9803158000141,596.9803158000141,596.9803158000141,596.9803158000141,597.9802490000002,597.9802490000002,598.764711900003,c,1,0.778038699994795,None,866364,001,2024-10-16_16h27.00.880,sequene learning,2024.1.5,None,2024-10-16 16h27.07.445902 +0530,
50,c,,,,,10,0,40,2,598.7801835000137,,598.7661171000072,598.7801835000137,599.779956000013,599.779956000013,599.779956000013,599.779956000013,599.779956000013,600.7796256000001,600.7796256000001,601.3481297000108,c,1,0.5669704000029014,None,866364,001,2024-10-16_16h27.00.880,sequene learning,2024.1.5,None,2024-10-16 16h27.07.445902 +0530,
50,c,,,,,10,1,41,2,601.3629941000108,,601.3494960000098,601.3629941000108,602.36282200001,602.36282200001,602.36282200001,602.36282200001,602.36282200001,603.3624170000112,603.3624170000112,603.8812081000069,c,1,0.5124782999919262,None,866364,001,2024-10-16_16h27.00.880,sequene learning,2024.1.5,None,2024-10-16 16h27.07.445902 +0530,
150,v,,,,,10,2,42,3,603.8958384000143,,603.8825268000073,603.8958384000143,604.8954213000106,604.8954213000106,604.8954213000106,604.8954213000106,604.8954213000106,605.8951936000085,605.8951936000085,606.5958355000039,v,1,0.6980430999974487,None,866364,001,2024-10-16_16h27.00.880,sequene learning,2024.1.5,None,2024-10-16 16h27.07.445902 +0530,
-150,z,,,,,10,3,43,0,606.611685300013,,606.5970504000143,606.611685300013,607.6116902000067,607.6116902000067,607.6116902000067,607.6116902000067,607.6116902000067,608.611464600006,608.611464600006,609.3116595000029,z,1,0.6900416999997105,None,866364,001,2024-10-16_16h27.00.880,sequene learning,2024.1.5,None,2024-10-16 16h27.07.445902 +0530,
-50,x,,,,,11,0,44,1,609.3277388000133,,609.3123103000107,609.3277388000133,610.3110255000065,610.3110255000065,610.3110255000065,610.3110255000065,610.3276571000024,611.3271932000061,611.3271932000061,612.2127458000032,x,1,0.8690615999948932,None,866364,001,2024-10-16_16h27.00.880,sequene learning,2024.1.5,None,2024-10-16 16h27.07.445902 +0530,
-150,z,,,,,11,1,45,0,612.2273528000078,,612.2145487000089,612.2273528000078,613.2270425000024,613.2270425000024,613.2270425000024,613.2270425000024,613.2270425000024,614.2268472000142,614.2268472000142,614.9780462000053,z,1,0.7421444000065094,None,866364,001,2024-10-16_16h27.00.880,sequene learning,2024.1.5,None,2024-10-16 16h27.07.445902 +0530,
-50,x,,,,,11,2,46,1,614.9932680000056,,614.979448500002,614.9932680000056,615.9931957000081,615.9931957000081,615.9931957000081,615.9931957000081,615.9931957000081,616.9930759000126,616.9930759000126,617.8442015000037,x,1,0.8471841999999015,None,866364,001,2024-10-16_16h27.00.880,sequene learning,2024.1.5,None,2024-10-16 16h27.07.445902 +0530,
50,c,,,,,11,3,47,2,617.8595104000124,,617.8455260000046,617.8595104000124,618.8594388000056,618.8594388000056,618.8594388000056,618.8594388000056,618.8594388000056,619.8591053000127,619.8591053000127,620.5109467000002,v,0,0.6362342999927932,None,866364,001,2024-10-16_16h27.00.880,sequene learning,2024.1.5,None,2024-10-16 16h27.07.445902 +0530,
150,v,,,,,12,0,48,3,620.5253086000012,,620.5127112000046,620.5253086000012,621.5250532000064,621.5250532000064,621.5250532000064,621.5250532000064,621.5250532000064,622.5250867000141,622.5250867000141,623.4435396000044,v,1,0.9020734000077937,None,866364,001,2024-10-16_16h27.00.880,sequene learning,2024.1.5,None,2024-10-16 16h27.07.445902 +0530,
-150,z,,,,,12,1,49,0,623.4584755000105,,623.4454515000107,623.4584755000105,624.4582762000064,624.4582762000064,624.4582762000064,624.4582762000064,624.4582762000064,625.4577370000043,625.4577370000043,625.9597298000008,z,1,0.4873991000058595,None,866364,001,2024-10-16_16h27.00.880,sequene learning,2024.1.5,None,2024-10-16 16h27.07.445902 +0530,
50,c,,,,,12,2,50,2,625.9744625000021,,625.9617331000045,625.9744625000021,626.9740215000056,626.9740215000056,626.9740215000056,626.9740215000056,626.9740215000056,627.9737854000123,627.9737854000123,629.059324700007,c,1,1.0770187999878544,None,866364,001,2024-10-16_16h27.00.880,sequene learning,2024.1.5,None,2024-10-16 16h27.07.445902 +0530,
150,v,,,,,12,3,51,3,629.0738397000096,,629.0607406000054,629.0738397000096,630.0735614000005,630.0735614000005,630.0735614000005,630.0735614000005,630.0735614000005,631.0731823000096,631.0731823000096,632.1079031000118,v,1,1.0286051000002772,None,866364,001,2024-10-16_16h27.00.880,sequene learning,2024.1.5,None,2024-10-16 16h27.07.445902 +0530,
-50,x,,,,,13,0,52,1,632.1229340000136,,632.1095801000047,632.1229340000136,633.1227157000103,633.1227157000103,633.1227157000103,633.1227157000103,633.1227157000103,634.1227339000034,634.1227339000034,634.9577295000054,x,1,0.8330609000113327,None,866364,001,2024-10-16_16h27.00.880,sequene learning,2024.1.5,None,2024-10-16 16h27.07.445902 +0530,
-150,z,,,,,13,1,53,0,634.9723615000112,,634.9591399000055,634.9723615000112,635.9719780000014,635.9719780000014,635.9719780000014,635.9719780000014,635.9719780000014,636.971786500013,636.971786500013,637.5408515000017,z,1,0.5559632999938913,None,866364,001,2024-10-16_16h27.00.880,sequene learning,2024.1.5,None,2024-10-16 16h27.07.445902 +0530,
-50,x,,,,,13,2,54,1,637.5552416000137,,637.5423972000135,637.5552416000137,638.5553236000123,638.5553236000123,638.5553236000123,638.5553236000123,638.5553236000123,639.5550462000101,639.5550462000101,640.2724382000015,x,1,0.7136695999943186,None,866364,001,2024-10-16_16h27.00.880,sequene learning,2024.1.5,None,2024-10-16 16h27.07.445902 +0530,
-150,z,,,,,13,3,55,0,640.2880003000028,,640.2737823000061,640.2880003000028,641.2879916000093,641.2879916000093,641.2879916000093,641.2879916000093,641.2879916000093,642.2873076000105,642.2873076000105,642.9553134000016,z,1,0.6583489000040572,None,866364,001,2024-10-16_16h27.00.880,sequene learning,2024.1.5,None,2024-10-16 16h27.07.445902 +0530,
-150,z,,,,,14,0,56,0,642.9708109000057,,642.956597100012,642.9708109000057,643.9705833000044,643.9705833000044,643.9705833000044,643.9705833000044,643.9705833000044,644.970298500004,644.970298500004,645.6217151000019,z,1,0.6392737999995006,None,866364,001,2024-10-16_16h27.00.880,sequene learning,2024.1.5,None,2024-10-16 16h27.07.445902 +0530,
150,v,,,,,14,1,57,3,645.6368819000054,,645.6231557000137,645.6368819000054,646.6370078000036,646.6370078000036,646.6370078000036,646.6370078000036,646.6370078000036,647.6364727000037,647.6364727000037,648.503787300011,v,1,0.8526438999979291,None,866364,001,2024-10-16_16h27.00.880,sequene learning,2024.1.5,None,2024-10-16 16h27.07.445902 +0530,
50,c,,,,,14,2,58,2,648.5194220000121,,648.5048113000084,648.5194220000121,649.5181160000066,649.5181160000066,649.5181160000066,649.5181160000066,649.5181160000066,650.5189290000126,650.5189290000126,651.938052700003,c,1,1.41516240000783,None,866364,001,2024-10-16_16h27.00.880,sequene learning,2024.1.5,None,2024-10-16 16h27.07.445902 +0530,
-50,x,,,,,14,3,59,1,651.9523269000056,,651.9397459000029,651.9523269000056,652.9521797000052,652.9521797000052,652.9521797000052,652.9521797000052,652.9521797000052,653.9517818000022,653.9517818000022,654.7193161000032,x,1,0.7609385999967344,None,866364,001,2024-10-16_16h27.00.880,sequene learning,2024.1.5,None,2024-10-16 16h27.07.445902 +0530,
-50,x,,,,,15,0,60,1,654.7349496000097,,654.7208140000002,654.7349496000097,655.7348033000017,655.7348033000017,655.7348033000017,655.7348033000017,655.7348033000017,656.7345646000031,656.7345646000031,657.9351415000128,x,1,1.1918006999912905,None,866364,001,2024-10-16_16h27.00.880,sequene learning,2024.1.5,None,2024-10-16 16h27.07.445902 +0530,
-150,z,,,,,15,1,61,0,657.9507474000129,,657.9363325000013,657.9507474000129,658.9508480000077,658.9508480000077,658.9508480000077,658.9508480000077,658.9508480000077,659.9502065000124,659.9502065000124,660.6355634000065,z,1,0.6827277999982471,None,866364,001,2024-10-16_16h27.00.880,sequene learning,2024.1.5,None,2024-10-16 16h27.07.445902 +0530,
50,c,,,,,15,2,62,2,660.6503212000098,,660.6372144000052,660.6503212000098,661.6490559000085,661.6490559000085,661.6490559000085,661.6490559000085,661.6490559000085,662.649854000003,662.649854000003,663.8843497000053,c,1,1.229759900001227,None,866364,001,2024-10-16_16h27.00.880,sequene learning,2024.1.5,None,2024-10-16 16h27.07.445902 +0530,
-50,x,,,,,15,3,63,1,663.8996952000016,,663.8856707000086,663.8996952000016,664.8995642000082,664.8995642000082,664.8995642000082,664.8995642000082,664.8995642000082,665.8991304000083,665.8991304000083,667.1013466000004,x,1,1.2002983999991557,None,866364,001,2024-10-16_16h27.00.880,sequene learning,2024.1.5,None,2024-10-16 16h27.07.445902 +0530,
-150,z,,,,,16,0,64,0,667.115541200008,,667.102833300014,667.115541200008,668.1152914000122,668.1152914000122,668.1152914000122,668.1152914000122,668.1152914000122,669.1151160000009,669.1151160000009,669.8673552000109,z,1,0.7490152999962447,None,866364,001,2024-10-16_16h27.00.880,sequene learning,2024.1.5,None,2024-10-16 16h27.07.445902 +0530,
150,v,,,,,16,1,65,3,669.881669800001,,669.8691929000051,669.881669800001,670.8816404000099,670.8816404000099,670.8816404000099,670.8816404000099,670.8816404000099,671.8813596000109,671.8813596000109,672.782520800014,v,1,0.8844429000018863,None,866364,001,2024-10-16_16h27.00.880,sequene learning,2024.1.5,None,2024-10-16 16h27.07.445902 +0530,
-150,z,,,,,16,2,66,0,672.7979160000104,,672.7841333000106,672.7979160000104,673.7977126000042,673.7977126000042,673.7977126000042,673.7977126000042,673.7977126000042,674.7973818000028,674.7973818000028,675.5977413000073,z,1,0.7985413999995217,None,866364,001,2024-10-16_16h27.00.880,sequene learning,2024.1.5,None,2024-10-16 16h27.07.445902 +0530,
150,v,,,,,16,3,67,3,675.6137377000123,,675.5986122000031,675.6137377000123,676.6135527000006,676.6135527000006,676.6135527000006,676.6135527000006,676.6135527000006,677.6132207000046,677.6132207000046,678.797816700011,v,1,1.1676219000073615,None,866364,001,2024-10-16_16h27.00.880,sequene learning,2024.1.5,None,2024-10-16 16h27.07.445902 +0530,
-50,x,,,,,17,0,68,1,678.8130244000058,,678.7991032000136,678.8130244000058,679.8129508000129,679.8129508000129,679.8129508000129,679.8129508000129,679.8129508000129,680.8124216000142,680.8124216000142,681.6634036000032,x,1,0.8482837000046857,None,866364,001,2024-10-16_16h27.00.880,sequene learning,2024.1.5,None,2024-10-16 16h27.07.445902 +0530,
50,c,,,,,17,1,69,2,681.6791453000042,,681.664350600011,681.6791453000042,682.679515900003,682.679515900003,682.679515900003,682.679515900003,682.679515900003,683.6787798000005,683.6787798000005,684.5969860000041,c,1,0.9035976000013761,None,866364,001,2024-10-16_16h27.00.880,sequene learning,2024.1.5,None,2024-10-16 16h27.07.445902 +0530,
150,v,,,,,17,2,70,3,684.6115226000111,,684.6041153000115,684.6115226000111,685.610617000013,685.610617000013,685.610617000013,685.610617000013,685.610617000013,686.6112134000141,686.6112134000141,687.5789333000139,v,1,0.9656245999940438,None,866364,001,2024-10-16_16h27.00.880,sequene learning,2024.1.5,None,2024-10-16 16h27.07.445902 +0530,
150,v,,,,,17,3,71,3,687.5945150000043,,687.5799688000116,687.5945150000043,688.5947552000143,688.5947552000143,688.5947552000143,688.5947552000143,688.5947552000143,689.5940864000004,689.5940864000004,690.8445640999998,v,1,1.2470286000025226,None,866364,001,2024-10-16_16h27.00.880,sequene learning,2024.1.5,None,2024-10-16 16h27.07.445902 +0530,
-150,z,,,,,18,0,72,0,690.8605615000124,,690.8454978000082,690.8605615000124,691.8603440000006,691.8603440000006,691.8603440000006,691.8603440000006,691.8603440000006,692.8600826000038,692.8600826000038,693.6441778000008,z,1,0.782206200005021,None,866364,001,2024-10-16_16h27.00.880,sequene learning,2024.1.5,None,2024-10-16 16h27.07.445902 +0530,
150,v,,,,,18,1,73,3,693.6589656000142,,693.6448047000013,693.6589656000142,694.6597429000103,694.6597429000103,694.6597429000103,694.6597429000103,694.6597429000103,695.6593667000125,695.6593667000125,696.2770001000026,v,1,0.608901200001128,None,866364,001,2024-10-16_16h27.00.880,sequene learning,2024.1.5,None,2024-10-16 16h27.07.445902 +0530,
-150,z,,,,,18,2,74,0,696.2928626000066,,696.277991400013,696.2928626000066,697.2926969000109,697.2926969000109,697.2926969000109,697.2926969000109,697.2926969000109,698.2925824000122,698.2925824000122,699.1273533000058,z,1,0.829104999997071,None,866364,001,2024-10-16_16h27.00.880,sequene learning,2024.1.5,None,2024-10-16 16h27.07.445902 +0530,
50,c,,,,,18,3,75,2,699.1424675000017,,699.1289168000076,699.1424675000017,700.1421322000097,700.1421322000097,700.1421322000097,700.1421322000097,700.1421322000097,701.1417905000126,701.1417905000126,702.1116328000062,c,1,0.9660657000058563,None,866364,001,2024-10-16_16h27.00.880,sequene learning,2024.1.5,None,2024-10-16 16h27.07.445902 +0530,
50,c,,,,,19,0,76,2,702.1251230000053,,702.1122448000096,702.1251230000053,703.1249505000014,703.1249505000014,703.1249505000014,703.1249505000014,703.1249505000014,704.1244682000106,704.1244682000106,704.7093490000116,c,1,0.5679615999979433,None,866364,001,2024-10-16_16h27.00.880,sequene learning,2024.1.5,None,2024-10-16 16h27.07.445902 +0530,
50,c,,,,,19,1,77,2,704.7244854000019,,704.7103207000036,704.7244854000019,705.7231023000058,705.7231023000058,705.7231023000058,705.7231023000058,705.7231023000058,706.7237119000056,706.7237119000056,707.708268900009,c,1,0.976673800003482,None,866364,001,2024-10-16_16h27.00.880,sequene learning,2024.1.5,None,2024-10-16 16h27.07.445902 +0530,
-150,z,,,,,19,2,78,0,707.7233787000005,,707.7090075000015,707.7233787000005,708.7233775000059,708.7233775000059,708.7233775000059,708.7233775000059,708.7233775000059,709.7233122000034,709.7233122000034,711.3241952000099,z,1,1.590325600001961,None,866364,001,2024-10-16_16h27.00.880,sequene learning,2024.1.5,None,2024-10-16 16h27.07.445902 +0530,
-50,x,,,,,19,3,79,1,711.339659300007,,711.325651200008,711.339659300007,712.3395136000036,712.3395136000036,712.3395136000036,712.3395136000036,712.3395136000036,713.3390500000096,713.3390500000096,714.3071986000141,x,1,0.9608849000069313,None,866364,001,2024-10-16_16h27.00.880,sequene learning,2024.1.5,None,2024-10-16 16h27.07.445902 +0530,
-50,x,,,,,20,0,80,1,714.3221661000134,,714.3086506000109,714.3221661000134,715.3220865000039,715.3220865000039,715.3220865000039,715.3220865000039,715.3220865000039,716.3219254000142,716.3219254000142,717.4402483000013,x,1,1.1017393999936758,None,866364,001,2024-10-16_16h27.00.880,sequene learning,2024.1.5,None,2024-10-16 16h27.07.445902 +0530,
50,c,,,,,20,1,81,2,717.454719100002,,717.4420248000097,717.454719100002,718.4547319000121,718.4547319000121,718.4547319000121,718.4547319000121,718.4547319000121,719.454796200007,719.454796200007,720.2726319000067,v,0,0.8050149000046076,None,866364,001,2024-10-16_16h27.00.880,sequene learning,2024.1.5,None,2024-10-16 16h27.07.445902 +0530,
-150,z,,,,,20,2,82,0,720.2874742000131,,720.274301100013,720.2874742000131,721.2875809000107,721.2875809000107,721.2875809000107,721.2875809000107,721.2875809000107,722.2871947000094,722.2871947000094,723.0717936000001,z,1,0.7735852999903727,None,866364,001,2024-10-16_16h27.00.880,sequene learning,2024.1.5,None,2024-10-16 16h27.07.445902 +0530,
-150,z,,,,,20,3,83,0,723.0870929000084,,723.0737025000126,723.0870929000084,724.0869649000088,724.0869649000088,724.0869649000088,724.0869649000088,724.0869649000088,725.0867780000117,725.0867780000117,725.804506600005,z,1,0.7087746000033803,None,866364,001,2024-10-16_16h27.00.880,sequene learning,2024.1.5,None,2024-10-16 16h27.07.445902 +0530,
